subj,session,block,trial,set_size,response,rt,correct,response_category
10,1,1,1,4,430,-1,1,correct
10,1,1,2,4,925,1.586,1,correct
10,1,1,3,2,533,1.399,1,correct
10,1,1,4,8,45,-1,0,new
10,1,1,5,6,477,2.301,1,correct
10,1,1,6,2,1105,2.424,1,correct
10,1,1,7,8,828,3.286,1,correct
10,1,1,8,6,193,3.213,1,correct
10,1,1,9,2,310,-1,1,correct
10,1,1,10,6,324,2.183,1,correct
10,1,1,11,4,985,1.897,1,correct
10,1,1,12,8,1076,4.244,1,correct
10,1,1,13,8,833,1.995,1,correct
10,1,1,14,8,317,6.445,0,intrusion
10,1,1,15,8,965,2.186,1,correct
10,1,1,16,8,634,4.348,1,correct
10,1,1,17,6,91,6.935,1,correct
10,1,1,18,8,286,8.323,0,intrusion
10,1,1,19,4,605,1.54,1,correct
10,1,1,20,2,194,1.025,1,correct
10,1,1,21,4,1182,1.497,1,correct
10,1,1,22,6,156,1.919,1,correct
10,1,1,23,6,539,-1,1,correct
10,1,1,24,6,209,2.488,1,correct
10,1,1,25,4,862,2.465,1,correct
10,1,1,26,8,876,5.92,0,intrusion
10,1,1,27,6,1068,3.658,0,intrusion
10,1,1,28,8,931,2.172,1,correct
10,1,2,1,8,1057,1.96,1,correct
10,1,2,2,8,947,1.957,1,correct
10,1,2,3,4,712,1.757,1,correct
10,1,2,4,6,676,2.042,1,correct
10,1,2,5,4,283,-1,1,correct
10,1,2,6,8,149,1.704,1,correct
10,1,2,7,8,1195,-1,0,intrusion
10,1,2,8,6,683,5.029,1,correct
10,1,2,9,8,340,2.251,1,correct
10,1,2,10,6,122,-1,1,correct
10,1,2,11,6,687,5.553,1,correct
10,1,2,12,8,357,3.363,1,correct
10,1,2,13,2,878,1.108,1,correct
10,1,2,14,6,339,1.332,1,correct
10,1,2,15,8,190,4.115,1,correct
10,1,2,16,6,1004,1.684,1,correct
10,1,2,17,2,598,1.173,1,correct
10,1,2,18,4,753,2.093,1,correct
10,1,2,19,2,970,-1,1,correct
10,1,2,20,4,147,1.688,1,correct
10,1,2,21,4,806,2.17,1,correct
10,1,2,22,2,824,1.514,1,correct
10,1,2,23,6,987,1.633,1,correct
10,1,2,24,8,1048,2.833,1,correct
10,1,2,25,8,583,2.661,1,correct
10,1,2,26,4,865,1.281,1,correct
10,1,2,27,6,81,1.064,1,correct
10,1,2,28,8,892,3.132,1,correct
10,1,3,1,4,296,2.014,1,correct
10,1,3,2,8,773,3.16,1,correct
10,1,3,3,2,254,1.738,1,correct
10,1,3,4,6,119,1.861,1,correct
10,1,3,5,4,602,3.325,1,correct
10,1,3,6,8,262,6.406,1,correct
10,1,3,7,4,293,4.208,1,correct
10,1,3,8,8,656,2.084,1,correct
10,1,3,9,2,898,-1,1,correct
10,1,3,10,6,549,2.053,1,correct
10,1,3,11,6,494,2.173,1,correct
10,1,3,12,8,648,3.051,1,correct
10,1,3,13,8,769,2.327,1,correct
10,1,3,14,4,198,5.523,0,intrusion
10,1,3,15,2,860,2.341,1,correct
10,1,3,16,6,1117,-1,0,new
10,1,3,17,2,538,1.745,1,correct
10,1,3,18,4,281,1.465,1,correct
10,1,3,19,6,745,4.56,1,correct
10,1,3,20,6,77,1.636,1,correct
10,1,3,21,6,1064,1.596,1,correct
10,1,3,22,8,1128,11.858,0,intrusion
10,1,3,23,8,332,-1,0,intrusion
10,1,3,24,6,696,2.303,1,correct
10,1,3,25,8,371,9.203,0,intrusion
10,1,3,26,4,11,-1,1,correct
10,1,3,27,8,624,6.041,1,correct
10,1,3,28,8,814,4.526,1,correct
10,1,4,1,2,530,-1,1,correct
10,1,4,2,8,1185,-1,1,correct
10,1,4,3,4,321,2.88,1,correct
10,1,4,4,4,1114,1.628,1,correct
10,1,4,5,8,31,5.953,0,intrusion
10,1,4,6,4,411,1.995,1,correct
10,1,4,7,8,434,2.221,1,correct
10,1,4,8,6,798,2.199,1,correct
10,1,4,9,2,1027,1.51,1,correct
10,1,4,10,8,691,5.033,1,correct
10,1,4,11,4,213,1.924,1,correct
10,1,4,12,4,354,1.807,1,correct
10,1,4,13,8,456,4.285,1,correct
10,1,4,14,4,322,-1,1,correct
10,1,4,15,8,319,2.48,1,correct
10,1,4,16,2,770,1.354,1,correct
10,1,4,17,6,46,3.96,1,correct
10,1,4,18,8,282,2.584,1,correct
10,1,4,19,6,599,3.401,1,correct
10,1,4,20,6,24,1.633,1,correct
10,1,4,21,6,729,4.031,0,intrusion
10,1,4,22,8,717,2.428,1,correct
10,1,4,23,6,417,3.873,1,correct
10,1,4,24,6,394,1.969,1,correct
10,1,4,25,8,893,2.263,1,correct
10,1,4,26,2,954,1.568,1,correct
10,1,4,27,8,113,3.499,0,intrusion
10,1,4,28,6,369,-1,1,correct
10,1,5,1,4,1060,1.704,1,correct
10,1,5,2,2,521,1.955,1,correct
10,1,5,3,8,975,2.768,1,correct
10,1,5,4,6,1166,3.772,1,correct
10,1,5,5,8,958,2.736,1,correct
10,1,5,6,6,1024,-1,1,correct
10,1,5,7,8,950,2.026,1,correct
10,1,5,8,2,581,1.886,1,correct
10,1,5,9,8,800,8.105,1,correct
10,1,5,10,4,946,1.811,1,correct
10,1,5,11,8,763,-1,1,correct
10,1,5,12,6,387,2.156,1,correct
10,1,5,13,8,621,6.438,0,intrusion
10,1,5,14,6,654,2.057,1,correct
10,1,5,15,6,166,1.695,1,correct
10,1,5,16,2,271,1.719,1,correct
10,1,5,17,4,883,-1,1,correct
10,1,5,18,8,638,5.132,1,correct
10,1,5,19,8,546,3.11,1,correct
10,1,5,20,4,1147,2.679,1,correct
10,1,5,21,8,280,1.936,1,correct
10,1,5,22,8,894,4.19,0,intrusion
10,1,5,23,4,955,1.87,1,correct
10,1,5,24,6,963,1.965,1,correct
10,1,5,25,4,146,1.491,1,correct
10,1,5,26,6,1066,1.401,1,correct
10,1,5,27,6,307,2,1,correct
10,1,5,28,2,392,-1,1,correct
10,1,6,1,6,240,2.318,1,correct
10,1,6,2,8,852,-1,1,correct
10,1,6,3,2,924,1.731,1,correct
10,1,6,4,4,28,1.968,1,correct
10,1,6,5,8,1032,6.362,1,correct
10,1,6,6,2,315,1.588,1,correct
10,1,6,7,8,537,2.147,1,correct
10,1,6,8,6,805,-1,1,correct
10,1,6,9,8,111,6.788,1,correct
10,1,6,10,8,654,5.778,1,correct
10,1,6,11,4,399,1.374,1,correct
10,1,6,12,2,65,1.573,1,correct
10,1,6,13,4,606,3.294,1,correct
10,1,6,14,6,186,1.426,1,correct
10,1,6,15,6,269,7.57,0,intrusion
10,1,6,16,6,116,3.462,1,correct
10,1,6,17,4,12,2.039,1,correct
10,1,6,18,6,604,3.13,1,correct
10,1,6,19,8,664,3.221,1,correct
10,1,6,20,8,387,1.867,1,correct
10,1,6,21,8,5,1.98,1,correct
10,1,6,22,8,1057,3.273,0,intrusion
10,1,6,23,4,1079,1.666,1,correct
10,1,6,24,6,423,3.621,1,correct
10,1,6,25,8,323,4.945,1,correct
10,1,6,26,6,348,3.148,1,correct
10,1,6,27,2,948,-1,1,correct
10,1,6,28,4,139,-1,1,correct
10,1,7,1,8,1173,2.971,1,correct
10,1,7,2,2,1058,1.81,1,correct
10,1,7,3,6,995,2.635,1,correct
10,1,7,4,8,1193,2.727,1,correct
10,1,7,5,6,624,2.849,1,correct
10,1,7,6,8,67,-1,0,intrusion
10,1,7,7,4,534,2.283,1,correct
10,1,7,8,4,830,2.11,1,correct
10,1,7,9,8,184,3.835,1,correct
10,1,7,10,6,453,-1,1,correct
10,1,7,11,2,25,-1,1,correct
10,1,7,12,8,974,2.202,1,correct
10,1,7,13,2,996,1.853,1,correct
10,1,7,14,8,456,5.632,1,correct
10,1,7,15,6,1129,2.029,1,correct
10,1,7,16,8,121,6.439,0,intrusion
10,1,7,17,8,223,7.005,0,intrusion
10,1,7,18,8,89,2.24,1,correct
10,1,7,19,6,812,1.803,1,correct
10,1,7,20,6,824,3.974,1,correct
10,1,7,21,6,1008,1.903,1,correct
10,1,7,22,6,700,2.822,1,correct
10,1,7,23,8,383,3.43,1,correct
10,1,7,24,2,1191,1.644,1,correct
10,1,7,25,4,1146,2.115,1,correct
10,1,7,26,4,158,1.887,1,correct
10,1,7,27,4,333,-1,1,correct
10,1,7,28,4,655,2.196,1,correct
10,2,1,1,8,237,6.673,1,correct
10,2,1,2,6,782,3.325,1,correct
10,2,1,3,4,1055,1.423,1,correct
10,2,1,4,6,1160,2.993,1,correct
10,2,1,5,6,321,2.101,1,correct
10,2,1,6,2,230,1.48,1,correct
10,2,1,7,6,953,3.774,1,correct
10,2,1,8,4,1150,2.115,1,correct
10,2,1,9,8,953,-1,0,new
10,2,1,10,4,116,1.839,1,correct
10,2,1,11,8,821,3.428,1,correct
10,2,1,12,8,1191,4.266,1,correct
10,2,1,13,8,14,4.82,1,correct
10,2,1,14,8,285,1.928,1,correct
10,2,1,15,8,412,3.881,1,correct
10,2,1,16,6,1116,2.408,1,correct
10,2,1,17,2,473,1.635,1,correct
10,2,1,18,8,1144,2.628,1,correct
10,2,1,19,6,687,1.785,1,correct
10,2,1,20,4,231,2.142,1,correct
10,2,1,21,6,1063,-1,1,correct
10,2,1,22,2,62,-1,1,correct
10,2,1,23,8,872,3.939,1,correct
10,2,1,24,6,573,3.14,1,correct
10,2,1,25,4,1125,2.178,1,correct
10,2,1,26,2,405,1.965,1,correct
10,2,1,27,8,1169,1.868,1,correct
10,2,1,28,4,880,-1,0,intrusion
10,2,2,1,6,981,1.722,1,correct
10,2,2,2,6,173,3.68,1,correct
10,2,2,3,4,770,1.462,1,correct
10,2,2,4,8,117,6.395,1,correct
10,2,2,5,6,1165,1.018,1,correct
10,2,2,6,2,562,1.676,1,correct
10,2,2,7,2,19,-1,1,correct
10,2,2,8,8,576,4.537,1,correct
10,2,2,9,6,1040,1.28,1,correct
10,2,2,10,8,597,9.808,1,correct
10,2,2,11,2,796,1.364,1,correct
10,2,2,12,8,656,3.21,0,intrusion
10,2,2,13,6,849,1.947,1,correct
10,2,2,14,4,1117,1.457,1,correct
10,2,2,15,4,377,-1,1,correct
10,2,2,16,4,441,2.046,1,correct
10,2,2,17,4,283,2.016,1,correct
10,2,2,18,8,165,1.942,1,correct
10,2,2,19,8,454,1.526,1,correct
10,2,2,20,6,74,-1,1,correct
10,2,2,21,2,1124,1.916,1,correct
10,2,2,22,8,477,1.944,1,correct
10,2,2,23,8,618,-1,0,new
10,2,2,24,4,312,2.121,1,correct
10,2,2,25,6,471,2.369,1,correct
10,2,2,26,8,472,2.97,1,correct
10,2,2,27,8,893,8.827,1,correct
10,2,2,28,6,797,2.541,1,correct
10,2,3,1,8,268,1.836,1,correct
10,2,3,2,4,714,1.965,1,correct
10,2,3,3,8,967,3.05,1,correct
10,2,3,4,8,415,1.903,1,correct
10,2,3,5,6,120,7.221,1,correct
10,2,3,6,6,1130,1.635,1,correct
10,2,3,7,8,381,2.062,1,correct
10,2,3,8,2,361,1.425,1,correct
10,2,3,9,8,870,5.497,0,intrusion
10,2,3,10,2,46,1.866,1,correct
10,2,3,11,4,529,1.776,1,correct
10,2,3,12,8,575,-1,1,correct
10,2,3,13,4,795,2.104,1,correct
10,2,3,14,6,1025,1.859,1,correct
10,2,3,15,6,15,4.531,1,correct
10,2,3,16,4,638,1.982,1,correct
10,2,3,17,2,652,-1,1,correct
10,2,3,18,6,1133,2.24,1,correct
10,2,3,19,4,886,1.92,1,correct
10,2,3,20,8,76,2.629,1,correct
10,2,3,21,8,598,3.302,1,correct
10,2,3,22,6,350,2.258,1,correct
10,2,3,23,6,1168,2.778,1,correct
10,2,3,24,4,692,-1,1,correct
10,2,3,25,6,439,-1,1,correct
10,2,3,26,8,10,3.236,1,correct
10,2,3,27,2,771,1.858,1,correct
10,2,3,28,8,300,4.715,1,correct
10,2,4,1,8,892,-1,1,correct
10,2,4,2,8,95,2.358,1,correct
10,2,4,3,8,749,1.984,0,intrusion
10,2,4,4,6,152,2.364,1,correct
10,2,4,5,2,2,1.836,1,correct
10,2,4,6,6,1081,3.693,1,correct
10,2,4,7,4,650,1.755,1,correct
10,2,4,8,6,252,-1,1,correct
10,2,4,9,4,743,2.297,1,correct
10,2,4,10,2,537,-1,1,correct
10,2,4,11,6,105,2.798,1,correct
10,2,4,12,8,98,3.038,1,correct
10,2,4,13,2,42,1.857,1,correct
10,2,4,14,8,958,2.376,1,correct
10,2,4,15,6,176,1.833,1,correct
10,2,4,16,4,452,7.3,1,correct
10,2,4,17,4,309,1.842,1,correct
10,2,4,18,4,197,-1,1,correct
10,2,4,19,4,286,1.778,1,correct
10,2,4,20,8,777,2.588,1,correct
10,2,4,21,8,788,6.413,0,intrusion
10,2,4,22,6,358,2.05,1,correct
10,2,4,23,2,697,1.521,1,correct
10,2,4,24,8,365,2.772,1,correct
10,2,4,25,6,570,4.273,1,correct
10,2,4,26,8,1118,9.557,0,intrusion
10,2,4,27,8,907,6.203,0,intrusion
10,2,4,28,6,7,2.257,1,correct
10,2,5,1,4,980,2.813,1,correct
10,2,5,2,4,827,1.331,1,correct
10,2,5,3,6,135,-1,1,correct
10,2,5,4,6,111,3.691,1,correct
10,2,5,5,2,906,1.749,1,correct
10,2,5,6,4,423,1.94,1,correct
10,2,5,7,8,1032,11.56,0,intrusion
10,2,5,8,8,1090,3.787,1,correct
10,2,5,9,4,167,1.739,1,correct
10,2,5,10,4,1008,-1,1,correct
10,2,5,11,8,1016,1.751,1,correct
10,2,5,12,8,270,3.572,1,correct
10,2,5,13,8,195,1.682,1,correct
10,2,5,14,2,217,-1,1,correct
10,2,5,15,6,545,2.384,1,correct
10,2,5,16,2,588,1.683,1,correct
10,2,5,17,8,960,12.053,0,intrusion
10,2,5,18,6,28,1.78,1,correct
10,2,5,19,8,484,1.663,1,correct
10,2,5,20,6,632,3.043,1,correct
10,2,5,21,2,1006,1.621,1,correct
10,2,5,22,4,876,2.832,1,correct
10,2,5,23,6,443,4.433,0,intrusion
10,2,5,24,8,721,-1,1,correct
10,2,5,25,6,943,3.334,1,correct
10,2,5,26,8,1095,2.094,1,correct
10,2,5,27,8,85,5.207,0,intrusion
10,2,5,28,6,376,2.479,1,correct
10,2,6,1,8,637,-1,1,correct
10,2,6,2,6,523,2.429,1,correct
10,2,6,3,6,705,-1,1,correct
10,2,6,4,8,71,2.189,1,correct
10,2,6,5,2,119,-1,1,correct
10,2,6,6,8,162,2.904,1,correct
10,2,6,7,6,344,3.546,1,correct
10,2,6,8,6,429,1.862,1,correct
10,2,6,9,8,1052,1.725,1,correct
10,2,6,10,4,684,2.053,1,correct
10,2,6,11,2,954,1.765,1,correct
10,2,6,12,8,385,2.444,1,correct
10,2,6,13,6,1151,1.972,1,correct
10,2,6,14,8,296,3.538,1,correct
10,2,6,15,2,464,2.161,1,correct
10,2,6,16,6,265,2.153,1,correct
10,2,6,17,8,784,6.368,1,correct
10,2,6,18,4,364,2.081,1,correct
10,2,6,19,4,1114,-1,1,correct
10,2,6,20,4,602,2.282,1,correct
10,2,6,21,8,378,2.662,1,correct
10,2,6,22,8,886,3.083,1,correct
10,2,6,23,8,816,3.312,0,intrusion
10,2,6,24,6,280,4.108,1,correct
10,2,6,25,4,69,1.811,1,correct
10,2,6,26,4,667,1.854,1,correct
10,2,6,27,2,475,1.683,1,correct
10,2,6,28,6,911,5.235,0,intrusion
10,2,7,1,8,322,2.809,1,correct
10,2,7,2,8,858,2.177,1,correct
10,2,7,3,4,1069,2.752,1,correct
10,2,7,4,4,902,2.112,1,correct
10,2,7,5,2,238,-1,1,correct
10,2,7,6,8,541,3.033,1,correct
10,2,7,7,4,324,-1,1,correct
10,2,7,8,6,310,6.649,1,correct
10,2,7,9,6,584,2.134,1,correct
10,2,7,10,2,171,2.285,1,correct
10,2,7,11,6,255,1.912,1,correct
10,2,7,12,6,165,1.902,1,correct
10,2,7,13,6,444,4.057,1,correct
10,2,7,14,8,347,2.479,1,correct
10,2,7,15,8,406,7.072,1,correct
10,2,7,16,2,758,1.704,1,correct
10,2,7,17,8,600,8.459,0,intrusion
10,2,7,18,4,814,1.908,1,correct
10,2,7,19,8,857,2.678,1,correct
10,2,7,20,6,240,1.989,1,correct
10,2,7,21,8,658,-1,1,correct
10,2,7,22,8,842,2.379,1,correct
10,2,7,23,6,1164,-1,1,correct
10,2,7,24,2,518,1.881,1,correct
10,2,7,25,8,908,1.898,1,correct
10,2,7,26,4,472,2.006,1,correct
10,2,7,27,4,1002,1.823,1,correct
10,2,7,28,6,109,1.956,1,correct
10,2,8,1,6,158,7.591,1,correct
10,2,8,2,4,1106,2.033,1,correct
10,2,8,3,4,173,0.859,1,correct
10,2,8,4,8,239,2.141,1,correct
10,2,8,5,6,551,1.256,1,correct
10,2,8,6,8,749,8.972,0,intrusion
10,2,8,7,2,294,1.691,1,correct
10,2,8,8,6,338,-1,1,correct
10,2,8,9,2,413,-1,1,correct
10,2,8,10,8,871,1.56,1,correct
10,2,8,11,4,995,1.645,1,correct
10,2,8,12,2,1015,1.115,1,correct
10,2,8,13,8,288,9.88,1,correct
10,2,8,14,4,996,2.128,1,correct
10,2,8,15,8,537,3.97,0,intrusion
10,2,8,16,4,748,-1,1,correct
10,2,8,17,6,630,2.612,1,correct
10,2,8,18,8,810,-1,1,correct
10,2,8,19,8,862,5.49,1,correct
10,2,8,20,6,478,2.014,1,correct
10,2,8,21,8,1087,2.677,1,correct
10,2,8,22,4,1144,3.448,1,correct
10,2,8,23,6,83,1.887,1,correct
10,2,8,24,6,12,2.637,1,correct
10,2,8,25,6,482,2.099,1,correct
10,2,8,26,8,1025,2.202,1,correct
10,2,8,27,2,36,1.736,1,correct
10,2,8,28,8,883,4.943,0,intrusion
10,3,1,1,8,687,1.895,1,correct
10,3,1,2,2,645,1.489,1,correct
10,3,1,3,8,1163,14.601,1,correct
10,3,1,4,4,525,1.817,1,correct
10,3,1,5,8,1089,15.803,0,intrusion
10,3,1,6,2,107,1.707,1,correct
10,3,1,7,4,530,-1,1,correct
10,3,1,8,8,754,2.519,1,correct
10,3,1,9,4,824,1.558,1,correct
10,3,1,10,6,105,1.469,1,correct
10,3,1,11,4,293,1.482,1,correct
10,3,1,12,6,848,1.486,1,correct
10,3,1,13,4,1100,1.591,1,correct
10,3,1,14,6,409,-1,0,new
10,3,1,15,6,220,1.247,1,correct
10,3,1,16,6,957,1.588,1,correct
10,3,1,17,8,152,-1,0,intrusion
10,3,1,18,8,224,6.645,1,correct
10,3,1,19,2,852,1.412,1,correct
10,3,1,20,6,732,3.005,1,correct
10,3,1,21,8,1191,1.658,1,correct
10,3,1,22,2,853,-1,1,correct
10,3,1,23,8,132,6.187,1,correct
10,3,1,24,6,125,2.149,1,correct
10,3,1,25,8,387,1.918,1,correct
10,3,1,26,8,320,6.402,0,intrusion
10,3,1,27,4,1025,3.241,0,intrusion
10,3,1,28,6,480,1.52,1,correct
10,3,2,1,2,1005,1.623,1,correct
10,3,2,2,6,835,8.752,1,correct
10,3,2,3,8,255,1.958,1,correct
10,3,2,4,6,421,1.174,1,correct
10,3,2,5,8,242,-1,1,correct
10,3,2,6,4,177,1.722,1,correct
10,3,2,7,2,740,-1,1,correct
10,3,2,8,8,181,8.463,0,intrusion
10,3,2,9,6,802,-1,1,correct
10,3,2,10,8,662,2.257,1,correct
10,3,2,11,4,137,1.632,1,correct
10,3,2,12,6,1031,1.951,0,intrusion
10,3,2,13,6,788,1.521,1,correct
10,3,2,14,4,571,1.53,1,correct
10,3,2,15,8,358,3.856,1,correct
10,3,2,16,6,346,2.295,1,correct
10,3,2,17,4,538,-1,1,correct
10,3,2,18,8,402,2.744,1,correct
10,3,2,19,8,897,1.819,1,correct
10,3,2,20,4,86,2.201,1,correct
10,3,2,21,6,830,1.383,1,correct
10,3,2,22,2,384,1.598,1,correct
10,3,2,23,8,843,6.135,1,correct
10,3,2,24,8,908,6.709,1,correct
10,3,2,25,6,455,1.334,1,correct
10,3,2,26,4,419,1.317,1,correct
10,3,2,27,8,40,2.062,1,correct
10,3,2,28,2,998,1.183,1,correct
10,3,3,1,6,403,2.261,1,correct
10,3,3,2,6,1026,1.55,1,correct
10,3,3,3,2,882,-1,1,correct
10,3,3,4,8,444,1.945,1,correct
10,3,3,5,8,1125,2.969,0,intrusion
10,3,3,6,4,398,2.321,1,correct
10,3,3,7,8,868,2.486,1,correct
10,3,3,8,8,752,2.152,1,correct
10,3,3,9,2,232,1.299,1,correct
10,3,3,10,2,474,1.552,1,correct
10,3,3,11,8,209,1.897,1,correct
10,3,3,12,8,928,2.192,1,correct
10,3,3,13,6,520,1.596,1,correct
10,3,3,14,6,108,4.778,1,correct
10,3,3,15,4,977,-1,1,correct
10,3,3,16,2,1099,1.644,1,correct
10,3,3,17,8,45,-1,0,new
10,3,3,18,4,1186,1.868,1,correct
10,3,3,19,8,952,3.866,1,correct
10,3,3,20,4,349,1.68,1,correct
10,3,3,21,6,916,1.623,1,correct
10,3,3,22,6,1016,2.738,0,intrusion
10,3,3,23,8,605,3.046,1,correct
10,3,3,24,4,1045,1.688,1,correct
10,3,3,25,6,290,7.571,0,intrusion
10,3,3,26,6,733,-1,1,correct
10,3,3,27,8,1067,2.2,1,correct
10,3,3,28,4,52,1.713,1,correct
10,3,4,1,8,110,-1,1,correct
10,3,4,2,6,447,1.88,1,correct
10,3,4,3,2,895,-1,1,correct
10,3,4,4,4,944,1.768,1,correct
10,3,4,5,8,46,4.701,1,correct
10,3,4,6,8,694,2.379,1,correct
10,3,4,7,6,981,1.622,1,correct
10,3,4,8,4,1097,-1,1,correct
10,3,4,9,8,994,5.288,1,correct
10,3,4,10,6,959,9.162,1,correct
10,3,4,11,4,562,1.659,1,correct
10,3,4,12,4,292,1.838,1,correct
10,3,4,13,6,983,1.601,1,correct
10,3,4,14,2,1118,1.375,1,correct
10,3,4,15,8,410,1.883,1,correct
10,3,4,16,2,711,1.502,1,correct
10,3,4,17,6,1085,1.661,1,correct
10,3,4,18,6,142,1.879,1,correct
10,3,4,19,6,3,-1,1,correct
10,3,4,20,8,975,2.262,1,correct
10,3,4,21,2,1116,1.41,1,correct
10,3,4,22,8,1101,10.633,0,intrusion
10,3,4,23,6,1151,5.423,1,correct
10,3,4,24,8,593,2.719,1,correct
10,3,4,25,4,427,1.551,1,correct
10,3,4,26,8,195,5.535,1,correct
10,3,4,27,8,1146,1.816,1,correct
10,3,4,28,4,951,2.552,1,correct
10,3,5,1,6,258,-1,1,correct
10,3,5,2,6,198,4.126,1,correct
10,3,5,3,8,1051,2.58,1,correct
10,3,5,4,6,1194,2.676,1,correct
10,3,5,5,8,48,7.643,0,intrusion
10,3,5,6,4,1022,1.524,1,correct
10,3,5,7,8,671,1.88,1,correct
10,3,5,8,8,1168,1.361,1,correct
10,3,5,9,6,153,1.728,1,correct
10,3,5,10,8,139,7.368,1,correct
10,3,5,11,6,796,1.671,1,correct
10,3,5,12,2,187,1.355,1,correct
10,3,5,13,2,188,1.341,1,correct
10,3,5,14,8,162,7.66,0,intrusion
10,3,5,15,8,1009,-1,1,correct
10,3,5,16,2,213,1.412,1,correct
10,3,5,17,4,881,-1,1,correct
10,3,5,18,4,971,1.816,1,correct
10,3,5,19,2,817,-1,1,correct
10,3,5,20,8,100,2.095,1,correct
10,3,5,21,4,1001,2.468,1,correct
10,3,5,22,4,641,1.905,1,correct
10,3,5,23,6,689,3.409,1,correct
10,3,5,24,8,969,1.304,1,correct
10,3,5,25,6,674,1.667,1,correct
10,3,5,26,6,846,1.69,1,correct
10,3,5,27,8,1020,3.886,1,correct
10,3,5,28,4,715,1.342,1,correct
10,3,6,1,8,443,1.719,1,correct
10,3,6,2,8,749,2.596,1,correct
10,3,6,3,6,883,1.477,1,correct
10,3,6,4,8,591,1.725,1,correct
10,3,6,5,6,515,-1,1,correct
10,3,6,6,6,1108,2.821,1,correct
10,3,6,7,8,365,8.067,1,correct
10,3,6,8,2,602,1.53,1,correct
10,3,6,9,4,909,1.427,1,correct
10,3,6,10,8,182,1.323,1,correct
10,3,6,11,2,632,1.392,1,correct
10,3,6,12,2,1087,1.265,1,correct
10,3,6,13,8,45,-1,0,new
10,3,6,14,8,251,1.968,1,correct
10,3,6,15,4,147,-1,1,correct
10,3,6,16,4,945,4.859,1,correct
10,3,6,17,6,168,1.681,1,correct
10,3,6,18,8,87,1.568,1,correct
10,3,6,19,6,92,1.886,1,correct
10,3,6,20,4,579,1.596,1,correct
10,3,6,21,6,887,1.56,1,correct
10,3,6,22,4,371,1.813,1,correct
10,3,6,23,4,228,1.403,1,correct
10,3,6,24,6,648,2.262,1,correct
10,3,6,25,2,334,-1,1,correct
10,3,6,26,8,107,6.51,1,correct
10,3,6,27,8,1143,4.192,1,correct
10,3,6,28,6,780,2.193,1,correct
10,3,7,1,4,492,-1,1,correct
10,3,7,2,8,996,3.033,1,correct
10,3,7,3,2,51,1.953,1,correct
10,3,7,4,4,119,1.667,1,correct
10,3,7,5,8,707,1.92,1,correct
10,3,7,6,2,81,-1,1,correct
10,3,7,7,2,109,1.474,1,correct
10,3,7,8,8,1169,7.041,1,correct
10,3,7,9,2,768,1.315,1,correct
10,3,7,10,6,556,2.291,1,correct
10,3,7,11,4,101,1.76,1,correct
10,3,7,12,8,272,1.509,1,correct
10,3,7,13,4,617,2.044,1,correct
10,3,7,14,4,988,1.679,1,correct
10,3,7,15,8,185,5.347,1,correct
10,3,7,16,8,927,2.05,1,correct
10,3,7,17,8,801,8.324,0,intrusion
10,3,7,18,8,812,2.947,1,correct
10,3,7,19,6,1030,1.987,1,correct
10,3,7,20,6,100,4.049,1,correct
10,3,7,21,6,859,1.991,1,correct
10,3,7,22,8,358,7.677,0,intrusion
10,3,7,23,6,795,1.762,1,correct
10,3,7,24,4,82,1.772,1,correct
10,3,7,25,6,1065,10.134,1,correct
10,3,7,26,6,798,1.647,1,correct
10,3,7,27,8,536,-1,1,correct
10,3,7,28,6,221,-1,1,correct
10,3,8,1,4,1066,1.988,1,correct
10,3,8,2,8,874,2.202,1,correct
10,3,8,3,2,950,1.276,1,correct
10,3,8,4,8,539,3.526,1,correct
10,3,8,5,6,762,6.906,1,correct
10,3,8,6,4,434,-1,1,correct
10,3,8,7,8,721,3.609,0,intrusion
10,3,8,8,8,609,5.552,1,correct
10,3,8,9,8,878,10.089,1,correct
10,3,8,10,8,96,1.238,1,correct
10,3,8,11,8,982,2.662,1,correct
10,3,8,12,6,243,5.354,0,intrusion
10,3,8,13,6,145,1.584,1,correct
10,3,8,14,2,746,1.268,1,correct
10,3,8,15,6,361,4.049,1,correct
10,3,8,16,4,157,1.219,1,correct
10,3,8,17,4,755,1.399,1,correct
10,3,8,18,8,289,-1,1,correct
10,3,8,19,6,1121,1.23,1,correct
10,3,8,20,6,793,-1,1,correct
10,3,8,21,4,666,1.876,1,correct
10,3,8,22,8,577,2.137,1,correct
10,3,8,23,2,366,-1,1,correct
10,3,8,24,6,716,1.837,1,correct
10,3,8,25,2,893,1.534,1,correct
10,3,8,26,8,1110,1.813,1,correct
10,3,8,27,6,174,2.52,1,correct
10,3,8,28,4,120,1.285,1,correct
11,1,1,1,6,785,4.784,1,correct
11,1,1,2,8,560,7.441,0,intrusion
11,1,1,3,6,1106,6.936,1,correct
11,1,1,4,8,840,9.787,1,correct
11,1,1,5,6,1053,12.407,1,correct
11,1,1,6,2,551,1.863,1,correct
11,1,1,7,4,1050,1.981,1,correct
11,1,1,8,8,372,11.209,0,intrusion
11,1,1,9,2,190,1.803,1,correct
11,1,1,10,8,201,7.93,1,correct
11,1,1,11,8,44,6.189,1,correct
11,1,1,12,6,415,3.346,1,correct
11,1,1,13,6,1049,2.772,1,correct
11,1,1,14,4,926,7.521,1,correct
11,1,1,15,8,402,12.25,1,correct
11,1,1,16,8,741,1.881,1,correct
11,1,1,17,2,848,0.978,1,correct
11,1,1,18,8,614,10.966,1,correct
11,1,1,19,4,271,2.23,1,correct
11,1,1,20,8,147,13.031,1,correct
11,1,1,21,8,54,-1,0,new
11,1,1,22,6,875,2.235,1,correct
11,1,1,23,6,74,-1,1,correct
11,1,1,24,4,73,1.955,1,correct
11,1,1,25,6,671,2.321,1,correct
11,1,1,26,4,50,-1,1,correct
11,1,1,27,4,207,1.725,1,correct
11,1,1,28,2,738,-1,1,correct
11,1,2,1,8,573,6.277,1,correct
11,1,2,2,6,350,2.701,1,correct
11,1,2,3,2,344,1.29,1,correct
11,1,2,4,4,604,3.823,1,correct
11,1,2,5,8,55,4.616,1,correct
11,1,2,6,4,100,2.883,1,correct
11,1,2,7,2,718,1.216,1,correct
11,1,2,8,8,933,11.712,0,intrusion
11,1,2,9,2,637,-1,1,correct
11,1,2,10,8,804,4.604,1,correct
11,1,2,11,2,802,2.173,1,correct
11,1,2,12,8,852,2.029,1,correct
11,1,2,13,8,949,20.158,1,correct
11,1,2,14,8,997,-1,0,new
11,1,2,15,6,486,4.534,1,correct
11,1,2,16,8,183,7.772,1,correct
11,1,2,17,4,334,-1,0,new
11,1,2,18,4,506,1.14,1,correct
11,1,2,19,6,1122,7.011,1,correct
11,1,2,20,6,1076,8.475,0,intrusion
11,1,2,21,6,749,-1,1,correct
11,1,2,22,4,824,3.171,1,correct
11,1,2,23,6,757,1.65,1,correct
11,1,2,24,4,332,1.067,1,correct
11,1,2,25,6,599,5.12,1,correct
11,1,2,26,6,894,5.783,1,correct
11,1,2,27,8,385,17.24,1,correct
11,1,2,28,8,987,2.823,1,correct
11,1,3,1,2,622,-1,1,correct
11,1,3,2,8,300,5.187,1,correct
11,1,3,3,8,205,-1,1,correct
11,1,3,4,8,820,11.685,0,intrusion
11,1,3,5,6,1047,6.386,1,correct
11,1,3,6,6,476,-1,1,correct
11,1,3,7,8,41,2.642,1,correct
11,1,3,8,8,898,3.405,1,correct
11,1,3,9,4,543,3.07,1,correct
11,1,3,10,8,313,5.668,1,correct
11,1,3,11,8,8,5.932,1,correct
11,1,3,12,2,666,1.721,1,correct
11,1,3,13,8,558,4.439,1,correct
11,1,3,14,4,88,3.998,1,correct
11,1,3,15,4,563,-1,0,new
11,1,3,16,6,789,2.854,1,correct
11,1,3,17,2,1067,1.029,1,correct
11,1,3,18,4,782,2.44,1,correct
11,1,3,19,6,447,15.157,1,correct
11,1,3,20,6,413,3.048,1,correct
11,1,3,21,6,487,4.439,1,correct
11,1,3,22,8,1154,12.386,1,correct
11,1,3,23,4,33,2.901,1,correct
11,1,3,24,8,512,16.115,0,intrusion
11,1,3,25,6,399,11.091,1,correct
11,1,3,26,4,454,2.834,1,correct
11,1,3,27,6,642,1.775,1,correct
11,1,3,28,2,48,1.741,1,correct
11,1,4,1,8,404,5.379,1,correct
11,1,4,2,8,128,2.958,1,correct
11,1,4,3,6,1024,1.42,1,correct
11,1,4,4,4,29,1.184,1,correct
11,1,4,5,8,382,10.419,0,intrusion
11,1,4,6,8,307,6.568,1,correct
11,1,4,7,8,214,2.968,1,correct
11,1,4,8,8,934,4.664,1,correct
11,1,4,9,6,967,1.885,1,correct
11,1,4,10,2,277,1.452,1,correct
11,1,4,11,6,449,-1,0,new
11,1,4,12,8,320,8.047,1,correct
11,1,4,13,8,304,6.109,1,correct
11,1,4,14,4,627,-1,0,intrusion
11,1,4,15,8,431,-1,0,intrusion
11,1,4,16,6,657,2.36,1,correct
11,1,4,17,4,774,1.12,1,correct
11,1,4,18,2,462,1.623,1,correct
11,1,4,19,6,288,5.573,1,correct
11,1,4,20,4,624,7.693,1,correct
11,1,4,21,4,171,3.317,1,correct
11,1,4,22,8,19,9.244,0,intrusion
11,1,4,23,6,675,8.299,1,correct
11,1,4,24,2,52,-1,1,correct
11,1,4,25,4,443,1.565,1,correct
11,1,4,26,6,796,2.141,1,correct
11,1,4,27,6,217,2.038,1,correct
11,1,4,28,2,759,1.406,1,correct
11,1,5,1,6,370,3.664,1,correct
11,1,5,2,6,410,4.944,1,correct
11,1,5,3,2,729,2.096,1,correct
11,1,5,4,2,467,-1,1,correct
11,1,5,5,4,436,6.289,1,correct
11,1,5,6,6,249,4.082,1,correct
11,1,5,7,8,139,2.855,1,correct
11,1,5,8,8,598,1.998,1,correct
11,1,5,9,8,405,-1,1,correct
11,1,5,10,2,906,1.69,1,correct
11,1,5,11,8,664,5.054,1,correct
11,1,5,12,2,1079,1.471,1,correct
11,1,5,13,8,1198,2.612,1,correct
11,1,5,14,4,851,1.133,1,correct
11,1,5,15,8,693,1.369,1,correct
11,1,5,16,6,263,1.898,1,correct
11,1,5,17,6,727,12.021,1,correct
11,1,5,18,6,504,3.113,1,correct
11,1,5,19,4,59,-1,1,correct
11,1,5,20,4,837,1.788,1,correct
11,1,5,21,4,499,1.228,1,correct
11,1,5,22,8,971,8.734,0,intrusion
11,1,5,23,6,708,3.013,1,correct
11,1,5,24,8,874,4.484,1,correct
11,1,5,25,4,1089,2.449,1,correct
11,1,5,26,8,701,4.471,1,correct
11,1,5,27,6,1159,-1,0,new
11,1,5,28,8,853,2.261,1,correct
11,1,6,1,8,385,3.639,1,correct
11,1,6,2,2,321,-1,1,correct
11,1,6,3,6,417,-1,0,new
11,1,6,4,8,24,1.068,1,correct
11,1,6,5,8,309,-1,0,new
11,1,6,6,4,453,1.054,1,correct
11,1,6,7,8,697,1.655,1,correct
11,1,6,8,6,109,6.811,1,correct
11,1,6,9,6,809,5.415,1,correct
11,1,6,10,6,754,2.781,1,correct
11,1,6,11,4,87,1.451,1,correct
11,1,6,12,6,714,2.585,1,correct
11,1,6,13,8,647,16.442,0,intrusion
11,1,6,14,8,655,12.813,1,correct
11,1,6,15,2,241,1.583,1,correct
11,1,6,16,8,120,11.967,1,correct
11,1,6,17,4,316,2.283,1,correct
11,1,6,18,4,32,-1,0,new
11,1,6,19,4,152,1.474,1,correct
11,1,6,20,8,635,5.437,0,intrusion
11,1,6,21,4,1073,1.704,1,correct
11,1,6,22,8,164,2.851,1,correct
11,1,6,23,2,146,1.031,1,correct
11,1,6,24,8,322,5.629,1,correct
11,1,6,25,6,1094,14.408,1,correct
11,1,6,26,6,1168,1.767,1,correct
11,1,6,27,6,369,19.685,0,intrusion
11,1,6,28,2,911,0.791,1,correct
11,1,7,1,8,514,1.969,1,correct
11,1,7,2,4,588,1.949,1,correct
11,1,7,3,8,1039,3.293,1,correct
11,1,7,4,6,629,-1,0,new
11,1,7,5,2,783,1.114,1,correct
11,1,7,6,6,440,9.175,1,correct
11,1,7,7,4,162,3.002,1,correct
11,1,7,8,8,803,19.614,1,correct
11,1,7,9,8,731,4.147,1,correct
11,1,7,10,2,353,1.088,1,correct
11,1,7,11,8,74,19.891,1,correct
11,1,7,12,2,985,-1,1,correct
11,1,7,13,8,757,15.043,0,new
11,1,7,14,8,1061,-1,0,new
11,1,7,15,6,1137,2.492,1,correct
11,1,7,16,4,265,2.411,1,correct
11,1,7,17,4,751,3.412,1,correct
11,1,7,18,8,660,1.026,1,correct
11,1,7,19,4,562,3.164,1,correct
11,1,7,20,8,187,1.393,1,correct
11,1,7,21,6,30,8.224,1,correct
11,1,7,22,6,1119,1.022,1,correct
11,1,7,23,6,683,1.231,1,correct
11,1,7,24,6,13,11.96,1,correct
11,1,7,25,6,323,3.024,1,correct
11,1,7,26,8,363,7.772,0,intrusion
11,1,7,27,4,4,-1,1,correct
11,1,7,28,2,404,2.316,1,correct
11,2,1,1,4,550,3.199,1,correct
11,2,1,2,2,288,1.398,1,correct
11,2,1,3,8,100,2.568,1,correct
11,2,1,4,8,892,2.247,1,correct
11,2,1,5,8,787,6.047,0,intrusion
11,2,1,6,8,1183,4.042,0,intrusion
11,2,1,7,6,611,4.263,1,correct
11,2,1,8,6,423,1.278,1,correct
11,2,1,9,4,312,2.284,1,correct
11,2,1,10,8,356,7.248,0,intrusion
11,2,1,11,6,1197,-1,1,correct
11,2,1,12,8,804,-1,1,correct
11,2,1,13,8,54,22.562,1,correct
11,2,1,14,8,961,12.526,1,correct
11,2,1,15,6,50,3.962,1,correct
11,2,1,16,6,656,6.227,1,correct
11,2,1,17,4,519,1.134,1,correct
11,2,1,18,2,773,0.787,1,correct
11,2,1,19,4,533,-1,1,correct
11,2,1,20,2,298,-1,1,correct
11,2,1,21,4,471,1.64,1,correct
11,2,1,22,6,894,14.075,1,correct
11,2,1,23,6,1080,2.684,1,correct
11,2,1,24,6,873,1.661,1,correct
11,2,1,25,8,671,3.301,0,intrusion
11,2,1,26,2,250,0.988,1,correct
11,2,1,27,8,768,15.938,1,correct
11,2,1,28,4,158,1.527,1,correct
11,2,2,1,6,701,4.441,1,correct
11,2,2,2,6,839,4.482,1,correct
11,2,2,3,8,157,-1,0,new
11,2,2,4,8,1161,1.661,1,correct
11,2,2,5,6,114,2.284,1,correct
11,2,2,6,6,15,-1,0,new
11,2,2,7,4,433,2.647,1,correct
11,2,2,8,6,480,3.529,1,correct
11,2,2,9,8,85,3.143,0,intrusion
11,2,2,10,4,1077,1.68,1,correct
11,2,2,11,8,431,8.223,1,correct
11,2,2,12,8,624,7.306,0,intrusion
11,2,2,13,8,907,4.421,1,correct
11,2,2,14,4,167,1.183,1,correct
11,2,2,15,2,321,-1,1,correct
11,2,2,16,2,318,1.021,1,correct
11,2,2,17,4,1133,1.741,1,correct
11,2,2,18,4,899,1.718,1,correct
11,2,2,19,8,320,7.198,1,correct
11,2,2,20,8,294,6.38,0,intrusion
11,2,2,21,6,163,4.467,1,correct
11,2,2,22,2,172,0.901,1,correct
11,2,2,23,6,404,1.295,1,correct
11,2,2,24,8,658,0.88,0,new
11,2,2,25,2,189,1.16,1,correct
11,2,2,26,6,748,5.696,1,correct
11,2,2,27,4,334,-1,0,new
11,2,2,28,8,1184,9.742,0,intrusion
11,2,3,1,8,686,1.899,1,correct
11,2,3,2,6,401,1.349,1,correct
11,2,3,3,8,45,-1,0,new
11,2,3,4,2,483,-1,1,correct
11,2,3,5,2,340,1.444,1,correct
11,2,3,6,8,98,1.952,1,correct
11,2,3,7,8,900,3.2,1,correct
11,2,3,8,8,170,3.419,1,correct
11,2,3,9,6,53,-1,0,new
11,2,3,10,4,850,1.41,1,correct
11,2,3,11,4,35,0.879,1,correct
11,2,3,12,6,679,3.489,1,correct
11,2,3,13,6,972,1.827,1,correct
11,2,3,14,2,468,0.934,1,correct
11,2,3,15,4,143,1.48,1,correct
11,2,3,16,4,302,0.801,1,correct
11,2,3,17,6,674,3.011,1,correct
11,2,3,18,6,102,6.805,1,correct
11,2,3,19,8,759,5.184,1,correct
11,2,3,20,8,200,1.517,1,correct
11,2,3,21,8,1061,2.92,0,intrusion
11,2,3,22,8,549,2.046,1,correct
11,2,3,23,8,615,3.577,1,correct
11,2,3,24,6,105,2.301,1,correct
11,2,3,25,6,631,1.746,1,correct
11,2,3,26,2,10,0.955,1,correct
11,2,3,27,4,339,-1,1,correct
11,2,3,28,4,680,2.751,1,correct
11,2,4,1,8,944,3.448,0,intrusion
11,2,4,2,4,497,4.01,1,correct
11,2,4,3,6,479,3.159,1,correct
11,2,4,4,6,553,-1,0,new
11,2,4,5,2,688,0.898,1,correct
11,2,4,6,8,785,2.244,1,correct
11,2,4,7,8,916,1.095,1,correct
11,2,4,8,6,132,1.876,1,correct
11,2,4,9,4,161,-1,0,new
11,2,4,10,6,689,3.863,1,correct
11,2,4,11,8,958,2.014,1,correct
11,2,4,12,8,759,-1,0,new
11,2,4,13,8,803,8.321,1,correct
11,2,4,14,2,646,1.001,1,correct
11,2,4,15,4,363,3.782,1,correct
11,2,4,16,8,918,4.731,1,correct
11,2,4,17,4,1187,5.186,1,correct
11,2,4,18,6,357,2.796,1,correct
11,2,4,19,8,91,9.653,0,intrusion
11,2,4,20,4,388,1.258,1,correct
11,2,4,21,8,393,8.487,0,new
11,2,4,22,2,818,-1,1,correct
11,2,4,23,8,950,6.089,1,correct
11,2,4,24,6,63,1.265,1,correct
11,2,4,25,2,1138,1.45,1,correct
11,2,4,26,6,685,1.443,1,correct
11,2,4,27,4,470,1.944,1,correct
11,2,4,28,6,968,1.387,1,correct
11,2,5,1,4,639,0.955,1,correct
11,2,5,2,8,1171,4.418,0,intrusion
11,2,5,3,8,940,4.594,1,correct
11,2,5,4,2,963,1.067,1,correct
11,2,5,5,8,445,3.458,1,correct
11,2,5,6,4,1164,-1,1,correct
11,2,5,7,6,384,16.139,0,new
11,2,5,8,8,84,7.483,0,new
11,2,5,9,6,797,1.375,1,correct
11,2,5,10,6,715,5.065,1,correct
11,2,5,11,8,217,1.628,1,correct
11,2,5,12,6,857,2.756,0,intrusion
11,2,5,13,4,1097,1.856,1,correct
11,2,5,14,4,537,2.637,1,correct
11,2,5,15,2,502,0.927,1,correct
11,2,5,16,8,544,1.3,1,correct
11,2,5,17,2,494,0.965,1,correct
11,2,5,18,8,878,7.046,0,intrusion
11,2,5,19,6,1167,2.833,1,correct
11,2,5,20,2,587,-1,1,correct
11,2,5,21,8,1087,-1,0,new
11,2,5,22,8,683,5.357,1,correct
11,2,5,23,4,1139,1.619,1,correct
11,2,5,24,6,1154,-1,0,new
11,2,5,25,6,16,1.892,1,correct
11,2,5,26,4,523,1.174,1,correct
11,2,5,27,8,229,2.894,1,correct
11,2,5,28,6,107,2.222,1,correct
11,2,6,1,4,861,1.762,1,correct
11,2,6,2,6,853,1.13,1,correct
11,2,6,3,2,933,-1,1,correct
11,2,6,4,8,1017,1.315,1,correct
11,2,6,5,8,1110,1.99,1,correct
11,2,6,6,2,590,0.931,1,correct
11,2,6,7,6,893,3.644,1,correct
11,2,6,8,8,588,1.666,1,correct
11,2,6,9,2,643,0.925,1,correct
11,2,6,10,4,368,0.814,1,correct
11,2,6,11,6,1068,2.085,0,intrusion
11,2,6,12,8,753,4.532,1,correct
11,2,6,13,4,43,1.212,1,correct
11,2,6,14,2,186,0.795,1,correct
11,2,6,15,6,766,-1,0,new
11,2,6,16,8,443,8.998,1,correct
11,2,6,17,8,543,9.848,0,intrusion
11,2,6,18,8,420,5.689,0,intrusion
11,2,6,19,8,649,15.904,1,correct
11,2,6,20,6,753,2.565,1,correct
11,2,6,21,4,144,-1,1,correct
11,2,6,22,6,1038,11.953,0,intrusion
11,2,6,23,4,487,1.565,1,correct
11,2,6,24,8,715,1.134,1,correct
11,2,6,25,4,214,0.902,1,correct
11,2,6,26,8,1190,-1,0,new
11,2,6,27,6,1052,4.084,1,correct
11,2,6,28,6,708,1.975,1,correct
11,2,7,1,8,854,12.746,1,correct
11,2,7,2,6,108,3.698,1,correct
11,2,7,3,6,329,0.903,1,correct
11,2,7,4,8,45,2.043,1,correct
11,2,7,5,6,809,3.121,1,correct
11,2,7,6,8,766,1.891,1,correct
11,2,7,7,2,536,0.944,1,correct
11,2,7,8,4,673,2.769,1,correct
11,2,7,9,2,497,1.023,1,correct
11,2,7,10,8,1190,2.505,1,correct
11,2,7,11,8,311,2.243,1,correct
11,2,7,12,4,85,-1,0,new
11,2,7,13,4,980,0.982,1,correct
11,2,7,14,6,740,2.429,1,correct
11,2,7,15,4,770,1.683,1,correct
11,2,7,16,8,656,1.684,1,correct
11,2,7,17,2,1118,-1,1,correct
11,2,7,18,8,1074,-1,0,new
11,2,7,19,8,1113,2.083,1,correct
11,2,7,20,4,952,1.421,1,correct
11,2,7,21,4,1116,1.986,1,correct
11,2,7,22,6,848,1.126,1,correct
11,2,7,23,6,741,2.894,1,correct
11,2,7,24,2,529,1.253,1,correct
11,2,7,25,6,480,-1,0,new
11,2,7,26,8,27,1.57,1,correct
11,2,7,27,8,659,5.203,1,correct
11,2,7,28,6,694,5.798,1,correct
11,2,8,1,8,244,-1,0,new
11,2,8,2,8,1014,3.391,1,correct
11,2,8,3,6,1139,1.445,1,correct
11,2,8,4,4,322,0.831,1,correct
11,2,8,5,6,779,1.038,1,correct
11,2,8,6,8,537,5.393,0,intrusion
11,2,8,7,2,868,-1,1,correct
11,2,8,8,6,216,2.302,1,correct
11,2,8,9,6,422,2.629,1,correct
11,2,8,10,8,614,4.049,1,correct
11,2,8,11,6,409,9.532,1,correct
11,2,8,12,8,648,7.226,1,correct
11,2,8,13,4,16,1.452,1,correct
11,2,8,14,6,85,-1,0,new
11,2,8,15,2,131,1.537,1,correct
11,2,8,16,4,32,2.229,1,correct
11,2,8,17,8,450,1.091,1,correct
11,2,8,18,8,827,7.45,1,correct
11,2,8,19,6,516,3.082,1,correct
11,2,8,20,4,1061,-1,0,new
11,2,8,21,8,851,4.294,1,correct
11,2,8,22,4,970,1.506,1,correct
11,2,8,23,6,1111,2.951,1,correct
11,2,8,24,4,713,1.073,1,correct
11,2,8,25,8,561,19.523,0,intrusion
11,2,8,26,8,167,6.218,1,correct
11,2,8,27,2,499,0.679,1,correct
11,2,8,28,2,340,0.882,1,correct
11,3,1,1,6,538,5.102,1,correct
11,3,1,2,6,724,3.567,1,correct
11,3,1,3,8,380,8.726,1,correct
11,3,1,4,4,132,-1,0,new
11,3,1,5,6,190,2.555,1,correct
11,3,1,6,8,665,8.213,1,correct
11,3,1,7,8,350,14.682,1,correct
11,3,1,8,4,646,1.089,1,correct
11,3,1,9,8,827,3.543,1,correct
11,3,1,10,6,506,-1,0,new
11,3,1,11,4,1067,2.209,1,correct
11,3,1,12,4,966,1.995,1,correct
11,3,1,13,6,1141,2.485,1,correct
11,3,1,14,2,979,0.887,1,correct
11,3,1,15,4,282,0.871,1,correct
11,3,1,16,8,630,6.526,0,intrusion
11,3,1,17,8,196,-1,0,new
11,3,1,18,4,154,5.57,1,correct
11,3,1,19,2,202,1.051,1,correct
11,3,1,20,6,961,1.415,1,correct
11,3,1,21,8,1125,1.116,1,correct
11,3,1,22,8,280,4.233,1,correct
11,3,1,23,2,1117,1.109,1,correct
11,3,1,24,6,11,1.616,1,correct
11,3,1,25,8,1098,2.51,1,correct
11,3,1,26,2,666,-1,1,correct
11,3,1,27,6,288,1.439,1,correct
11,3,1,28,8,185,1.426,1,correct
11,3,2,1,4,262,1.927,1,correct
11,3,2,2,8,47,1.515,1,correct
11,3,2,3,8,497,5.15,1,correct
11,3,2,4,4,409,2.125,1,correct
11,3,2,5,8,713,10.389,0,intrusion
11,3,2,6,8,303,6.227,0,intrusion
11,3,2,7,6,895,1.197,1,correct
11,3,2,8,6,926,1.07,1,correct
11,3,2,9,8,445,4.856,1,correct
11,3,2,10,4,486,2.377,0,intrusion
11,3,2,11,6,623,2.027,1,correct
11,3,2,12,4,384,0.986,1,correct
11,3,2,13,2,337,0.907,1,correct
11,3,2,14,8,861,8.745,0,new
11,3,2,15,8,314,23.535,0,intrusion
11,3,2,16,8,349,-1,1,correct
11,3,2,17,6,90,1.426,1,correct
11,3,2,18,8,419,1.426,1,correct
11,3,2,19,6,150,3.805,1,correct
11,3,2,20,4,713,-1,0,new
11,3,2,21,2,690,1.24,1,correct
11,3,2,22,8,924,1.959,1,correct
11,3,2,23,6,1040,1.58,1,correct
11,3,2,24,2,484,-1,1,correct
11,3,2,25,2,819,2.133,1,correct
11,3,2,26,4,556,2.622,1,correct
11,3,2,27,6,1143,4.19,1,correct
11,3,2,28,6,505,-1,0,new
11,3,3,1,8,1096,14.647,0,intrusion
11,3,3,2,2,44,2.084,1,correct
11,3,3,3,6,115,-1,0,new
11,3,3,4,2,424,0.867,1,correct
11,3,3,5,6,548,7.414,1,correct
11,3,3,6,8,906,10.527,1,correct
11,3,3,7,6,1133,3.202,1,correct
11,3,3,8,4,981,-1,1,correct
11,3,3,9,6,465,3.927,1,correct
11,3,3,10,4,814,1.01,1,correct
11,3,3,11,4,800,0.989,1,correct
11,3,3,12,4,1130,2.509,1,correct
11,3,3,13,8,852,3.553,1,correct
11,3,3,14,8,1105,12.069,0,intrusion
11,3,3,15,6,1128,1.631,1,correct
11,3,3,16,2,990,0.945,1,correct
11,3,3,17,6,467,2.813,1,correct
11,3,3,18,8,758,4.651,1,correct
11,3,3,19,6,1104,3.582,1,correct
11,3,3,20,8,311,5.183,1,correct
11,3,3,21,8,199,14.278,0,new
11,3,3,22,4,335,1.669,1,correct
11,3,3,23,4,298,1.447,1,correct
11,3,3,24,2,1166,-1,1,correct
11,3,3,25,8,722,15.512,1,correct
11,3,3,26,6,1069,8.337,0,intrusion
11,3,3,27,8,136,3.008,1,correct
11,3,3,28,8,806,-1,0,intrusion
11,3,4,1,6,656,3.04,1,correct
11,3,4,2,8,372,12.474,0,intrusion
11,3,4,3,2,186,2.244,1,correct
11,3,4,4,4,265,2.008,1,correct
11,3,4,5,6,645,1.573,1,correct
11,3,4,6,8,619,4.993,1,correct
11,3,4,7,2,812,0.836,1,correct
11,3,4,8,8,353,2.348,0,intrusion
11,3,4,9,6,648,2.672,1,correct
11,3,4,10,4,243,0.937,1,correct
11,3,4,11,8,658,3.232,1,correct
11,3,4,12,8,595,3.533,0,intrusion
11,3,4,13,6,621,-1,0,new
11,3,4,14,2,100,1.195,1,correct
11,3,4,15,8,1041,2.724,1,correct
11,3,4,16,4,576,1.708,1,correct
11,3,4,17,4,364,1.947,1,correct
11,3,4,18,8,340,2.825,0,intrusion
11,3,4,19,8,804,1.819,1,correct
11,3,4,20,6,155,1.151,1,correct
11,3,4,21,8,406,4.948,1,correct
11,3,4,22,6,858,1.817,1,correct
11,3,4,23,2,1127,-1,1,correct
11,3,4,24,6,1024,1.714,1,correct
11,3,4,25,4,1006,-1,0,new
11,3,4,26,4,887,2.267,1,correct
11,3,4,27,6,401,2.391,1,correct
11,3,4,28,8,74,-1,0,new
11,3,5,1,8,517,1.716,1,correct
11,3,5,2,8,31,7.031,0,intrusion
11,3,5,3,6,629,-1,0,new
11,3,5,4,2,346,1.264,1,correct
11,3,5,5,4,1177,2.209,1,correct
11,3,5,6,6,455,1.227,1,correct
11,3,5,7,8,782,4.529,1,correct
11,3,5,8,6,1025,7.166,1,correct
11,3,5,9,8,45,-1,0,new
11,3,5,10,6,390,2.452,1,correct
11,3,5,11,8,317,3.43,1,correct
11,3,5,12,4,175,0.918,1,correct
11,3,5,13,6,775,1.421,1,correct
11,3,5,14,4,278,-1,1,correct
11,3,5,15,6,1060,2.558,1,correct
11,3,5,16,8,629,5.95,1,correct
11,3,5,17,6,609,1.649,1,correct
11,3,5,18,8,141,3.404,1,correct
11,3,5,19,8,1068,4.556,1,correct
11,3,5,20,6,482,4.957,1,correct
11,3,5,21,4,732,1.328,1,correct
11,3,5,22,8,591,8.299,1,correct
11,3,5,23,4,697,1.403,1,correct
11,3,5,24,2,547,1.079,1,correct
11,3,5,25,8,229,1.825,1,correct
11,3,5,26,4,1154,1.388,1,correct
11,3,5,27,2,1052,-1,1,correct
11,3,5,28,2,792,1.06,1,correct
11,3,6,1,4,310,3.24,1,correct
11,3,6,2,4,1086,1.786,1,correct
11,3,6,3,8,491,1.787,1,correct
11,3,6,4,8,482,3.654,1,correct
11,3,6,5,6,397,-1,0,intrusion
11,3,6,6,6,36,3.65,1,correct
11,3,6,7,4,526,3.342,1,correct
11,3,6,8,2,781,1.445,1,correct
11,3,6,9,4,129,1.713,1,correct
11,3,6,10,6,178,1.676,1,correct
11,3,6,11,6,1034,3.491,1,correct
11,3,6,12,8,625,7.977,1,correct
11,3,6,13,4,289,1.893,1,correct
11,3,6,14,8,108,2.223,1,correct
11,3,6,15,8,378,9.911,0,intrusion
11,3,6,16,8,550,8.813,1,correct
11,3,6,17,6,118,5.826,0,new
11,3,6,18,6,174,1.639,1,correct
11,3,6,19,8,713,-1,0,intrusion
11,3,6,20,8,1158,2.378,1,correct
11,3,6,21,6,569,2.353,1,correct
11,3,6,22,8,1120,2.151,1,correct
11,3,6,23,2,865,0.777,1,correct
11,3,6,24,8,393,1.514,1,correct
11,3,6,25,2,731,-1,1,correct
11,3,6,26,4,775,-1,0,new
11,3,6,27,6,960,1.221,1,correct
11,3,6,28,2,352,1.01,1,correct
11,3,7,1,8,565,1.22,1,correct
11,3,7,2,8,780,2.315,1,correct
11,3,7,3,4,82,1.237,1,correct
11,3,7,4,8,886,1.571,1,correct
11,3,7,5,4,247,0.926,1,correct
11,3,7,6,8,169,5.497,0,intrusion
11,3,7,7,6,646,1.623,1,correct
11,3,7,8,6,152,1.366,1,correct
11,3,7,9,4,1108,-1,1,correct
11,3,7,10,4,706,3.1,1,correct
11,3,7,11,2,54,1.044,1,correct
11,3,7,12,4,1077,1.042,1,correct
11,3,7,13,8,528,1.891,1,correct
11,3,7,14,6,587,1.988,1,correct
11,3,7,15,2,792,-1,1,correct
11,3,7,16,8,295,14.346,0,new
11,3,7,17,2,157,0.993,1,correct
11,3,7,18,8,862,-1,1,correct
11,3,7,19,6,354,3.867,1,correct
11,3,7,20,8,981,13.27,0,intrusion
11,3,7,21,6,251,1.058,1,correct
11,3,7,22,6,675,0.907,1,correct
11,3,7,23,2,1102,0.745,1,correct
11,3,7,24,4,1147,1.177,1,correct
11,3,7,25,6,334,-1,1,correct
11,3,7,26,8,705,1.259,1,correct
11,3,7,27,6,620,1.411,1,correct
11,3,7,28,8,1116,2.174,1,correct
11,3,8,1,2,459,0.815,1,correct
11,3,8,2,4,345,1.119,1,correct
11,3,8,3,8,480,1.41,1,correct
11,3,8,4,4,1084,-1,1,correct
11,3,8,5,8,1029,1.023,1,correct
11,3,8,6,4,397,1.519,1,correct
11,3,8,7,6,1168,2.451,1,correct
11,3,8,8,8,850,19.774,1,correct
11,3,8,9,2,751,0.953,1,correct
11,3,8,10,6,224,13.02,0,intrusion
11,3,8,11,4,344,1.501,1,correct
11,3,8,12,8,988,1.958,1,correct
11,3,8,13,8,236,-1,1,correct
11,3,8,14,2,958,-1,1,correct
11,3,8,15,6,1146,1.353,1,correct
11,3,8,16,8,1186,3.724,1,correct
11,3,8,17,6,311,3.563,1,correct
11,3,8,18,8,498,1.239,1,correct
11,3,8,19,6,432,9.525,1,correct
11,3,8,20,4,50,1.786,1,correct
11,3,8,21,4,915,1.769,1,correct
11,3,8,22,6,51,7.503,0,intrusion
11,3,8,23,6,335,3.378,1,correct
11,3,8,24,8,279,1.489,1,correct
11,3,8,25,8,506,2.451,1,correct
11,3,8,26,2,794,0.829,1,correct
11,3,8,27,6,399,-1,1,correct
11,3,8,28,8,471,3.505,1,correct
12,1,1,1,6,442,2.942,1,correct
12,1,1,2,8,866,-1,0,new
12,1,1,3,4,739,2.763,1,correct
12,1,1,4,6,1046,1.31,1,correct
12,1,1,5,8,632,6.275,1,correct
12,1,1,6,6,434,3.284,0,intrusion
12,1,1,7,4,1160,1.904,1,correct
12,1,1,8,8,201,11.982,1,correct
12,1,1,9,6,1126,4.717,0,intrusion
12,1,1,10,6,1041,-1,1,correct
12,1,1,11,4,726,1.991,1,correct
12,1,1,12,4,1015,4.962,1,correct
12,1,1,13,4,210,6.508,0,intrusion
12,1,1,14,8,468,1.933,0,intrusion
12,1,1,15,2,901,1.439,1,correct
12,1,1,16,2,458,1.143,1,correct
12,1,1,17,6,1032,1.747,1,correct
12,1,1,18,4,779,-1,1,correct
12,1,1,19,8,795,2.556,1,correct
12,1,1,20,8,297,2.022,1,correct
12,1,1,21,6,723,1.69,1,correct
12,1,1,22,6,445,3.398,1,correct
12,1,1,23,8,933,5.444,1,correct
12,1,1,24,2,30,0.888,1,correct
12,1,1,25,8,909,2.665,1,correct
12,1,1,26,8,993,1.697,1,correct
12,1,1,27,8,922,15.454,1,correct
12,1,1,28,2,27,-1,1,correct
12,1,2,1,6,938,3.41,0,intrusion
12,1,2,2,6,186,-1,1,correct
12,1,2,3,6,1070,1.855,1,correct
12,1,2,4,4,682,1.818,1,correct
12,1,2,5,6,366,1.283,1,correct
12,1,2,6,8,827,6.852,1,correct
12,1,2,7,8,487,10.797,1,correct
12,1,2,8,8,488,5.593,1,correct
12,1,2,9,8,889,1.565,1,correct
12,1,2,10,8,401,1.524,1,correct
12,1,2,11,2,244,-1,1,correct
12,1,2,12,6,1189,1.803,1,correct
12,1,2,13,8,269,-1,0,intrusion
12,1,2,14,4,505,2.106,1,correct
12,1,2,15,8,1,11.374,1,correct
12,1,2,16,6,187,0.816,1,correct
12,1,2,17,6,991,11.323,1,correct
12,1,2,18,2,497,1.266,1,correct
12,1,2,19,8,69,1.858,1,correct
12,1,2,20,4,296,0.904,1,correct
12,1,2,21,6,719,1.513,1,correct
12,1,2,22,2,664,2.069,1,correct
12,1,2,23,8,101,2.389,1,correct
12,1,2,24,8,685,3.425,0,intrusion
12,1,2,25,2,76,1.287,1,correct
12,1,2,26,4,1192,1.081,1,correct
12,1,2,27,4,796,-1,1,correct
12,1,2,28,4,580,1.63,1,correct
12,1,3,1,8,1133,1.115,1,correct
12,1,3,2,4,1111,3.052,1,correct
12,1,3,3,6,283,1.058,0,intrusion
12,1,3,4,8,538,6.808,0,intrusion
12,1,3,5,4,932,1.22,1,correct
12,1,3,6,2,491,1.278,1,correct
12,1,3,7,6,96,2.11,1,correct
12,1,3,8,4,864,1.696,1,correct
12,1,3,9,6,924,2.255,1,correct
12,1,3,10,2,292,-1,1,correct
12,1,3,11,6,921,-1,1,correct
12,1,3,12,8,809,4.321,1,correct
12,1,3,13,6,765,9.642,1,correct
12,1,3,14,8,79,1.242,1,correct
12,1,3,15,2,1185,1.056,1,correct
12,1,3,16,8,1110,2.837,0,intrusion
12,1,3,17,6,162,1.451,1,correct
12,1,3,18,6,163,1.641,1,correct
12,1,3,19,8,619,1.403,1,correct
12,1,3,20,8,747,1.464,1,correct
12,1,3,21,4,1149,2.124,1,correct
12,1,3,22,8,1188,2.827,1,correct
12,1,3,23,8,494,10.841,1,correct
12,1,3,24,6,1067,8.081,1,correct
12,1,3,25,4,1182,0.863,1,correct
12,1,3,26,2,132,1.697,1,correct
12,1,3,27,8,415,-1,1,correct
12,1,3,28,4,972,-1,1,correct
12,1,4,1,4,419,-1,1,correct
12,1,4,2,4,1058,2.191,1,correct
12,1,4,3,8,873,-1,0,intrusion
12,1,4,4,2,138,1.039,1,correct
12,1,4,5,6,727,6.751,1,correct
12,1,4,6,8,365,11.528,0,intrusion
12,1,4,7,6,318,6.932,0,intrusion
12,1,4,8,4,725,1.168,1,correct
12,1,4,9,2,544,-1,1,correct
12,1,4,10,4,959,2.366,1,correct
12,1,4,11,8,1143,3.176,1,correct
12,1,4,12,8,804,2.339,1,correct
12,1,4,13,6,41,3.724,0,intrusion
12,1,4,14,4,169,1.873,1,correct
12,1,4,15,6,1052,2.353,1,correct
12,1,4,16,8,109,13.244,1,correct
12,1,4,17,4,618,1.618,1,correct
12,1,4,18,6,1077,4.117,1,correct
12,1,4,19,8,610,2.481,1,correct
12,1,4,20,6,678,1.79,1,correct
12,1,4,21,8,402,9.793,0,intrusion
12,1,4,22,8,652,11.704,0,intrusion
12,1,4,23,2,516,1.653,1,correct
12,1,4,24,2,1076,1.046,1,correct
12,1,4,25,8,857,13.522,0,intrusion
12,1,4,26,6,540,1.456,1,correct
12,1,4,27,6,870,-1,1,correct
12,1,4,28,8,728,1.287,1,correct
12,1,5,1,6,978,1.326,1,correct
12,1,5,2,4,955,1.542,1,correct
12,1,5,3,2,905,1.054,1,correct
12,1,5,4,8,214,1.892,0,intrusion
12,1,5,5,8,1175,11.246,1,correct
12,1,5,6,8,554,0.972,1,correct
12,1,5,7,8,994,-1,1,correct
12,1,5,8,8,465,1.966,1,correct
12,1,5,9,8,527,0.968,1,correct
12,1,5,10,2,287,1.13,1,correct
12,1,5,11,8,463,4.362,0,intrusion
12,1,5,12,6,180,2.496,0,intrusion
12,1,5,13,6,939,1.507,1,correct
12,1,5,14,4,432,3.058,1,correct
12,1,5,15,2,275,1.411,1,correct
12,1,5,16,6,453,7.822,1,correct
12,1,5,17,6,967,4.31,1,correct
12,1,5,18,4,207,-1,1,correct
12,1,5,19,6,382,1.178,1,correct
12,1,5,20,8,321,1.648,1,correct
12,1,5,21,8,611,1.945,1,correct
12,1,5,22,6,379,-1,1,correct
12,1,5,23,8,417,5.639,1,correct
12,1,5,24,4,603,1.407,1,correct
12,1,5,25,6,331,2.554,1,correct
12,1,5,26,4,80,1.632,1,correct
12,1,5,27,4,814,1.023,1,correct
12,1,5,28,2,667,-1,1,correct
12,1,6,1,8,999,3.043,0,intrusion
12,1,6,2,6,429,1.998,1,correct
12,1,6,3,8,151,-1,0,intrusion
12,1,6,4,2,572,-1,1,correct
12,1,6,5,8,667,1.644,1,correct
12,1,6,6,4,1177,2.003,1,correct
12,1,6,7,4,988,1.955,1,correct
12,1,6,8,4,642,5.308,1,correct
12,1,6,9,6,408,1.759,1,correct
12,1,6,10,8,877,12.932,0,intrusion
12,1,6,11,6,908,9.862,1,correct
12,1,6,12,4,135,1.136,1,correct
12,1,6,13,2,406,1.062,1,correct
12,1,6,14,8,604,1.34,1,correct
12,1,6,15,6,846,1.861,1,correct
12,1,6,16,8,1002,6.786,1,correct
12,1,6,17,8,771,9.934,1,correct
12,1,6,18,8,734,1.334,1,correct
12,1,6,19,8,779,1.682,1,correct
12,1,6,20,2,582,1.257,1,correct
12,1,6,21,4,832,2.651,1,correct
12,1,6,22,6,705,1.41,1,correct
12,1,6,23,6,70,5.896,1,correct
12,1,6,24,8,605,1.547,1,correct
12,1,6,25,6,122,6.894,0,intrusion
12,1,6,26,6,35,-1,0,new
12,1,6,27,2,688,1.854,1,correct
12,1,6,28,4,1195,-1,1,correct
12,1,7,1,2,457,1.202,1,correct
12,1,7,2,8,1084,-1,1,correct
12,1,7,3,2,1030,1.409,1,correct
12,1,7,4,6,1172,1.578,1,correct
12,1,7,5,8,671,4.984,1,correct
12,1,7,6,6,614,-1,1,correct
12,1,7,7,4,436,1.872,1,correct
12,1,7,8,8,707,5.933,0,intrusion
12,1,7,9,2,1040,-1,1,correct
12,1,7,10,2,535,1.383,1,correct
12,1,7,11,4,639,1.48,1,correct
12,1,7,12,6,592,1.566,1,correct
12,1,7,13,8,942,4.749,1,correct
12,1,7,14,8,801,2.01,1,correct
12,1,7,15,8,416,4.278,0,intrusion
12,1,7,16,6,539,2.925,1,correct
12,1,7,17,8,1070,11.495,1,correct
12,1,7,18,4,552,-1,1,correct
12,1,7,19,4,768,1.661,1,correct
12,1,7,20,4,446,2.418,1,correct
12,1,7,21,8,567,1.275,1,correct
12,1,7,22,6,402,5.43,1,correct
12,1,7,23,8,953,3.449,1,correct
12,1,7,24,6,396,0.819,1,correct
12,1,7,25,8,374,8.248,0,intrusion
12,1,7,26,4,750,2.443,0,intrusion
12,1,7,27,6,690,5.898,0,intrusion
12,1,7,28,6,293,3.345,1,correct
12,2,1,1,6,792,1.61,1,correct
12,2,1,2,4,614,6.128,1,correct
12,2,1,3,4,1180,3.133,1,correct
12,2,1,4,4,945,-1,1,correct
12,2,1,5,2,110,-1,1,correct
12,2,1,6,6,1166,-1,0,intrusion
12,2,1,7,4,122,1.376,1,correct
12,2,1,8,8,373,-1,1,correct
12,2,1,9,2,604,1.04,1,correct
12,2,1,10,8,1068,1.861,1,correct
12,2,1,11,4,979,1.837,1,correct
12,2,1,12,8,1114,15.756,1,correct
12,2,1,13,2,874,0.953,1,correct
12,2,1,14,6,810,1.626,1,correct
12,2,1,15,6,281,1.305,1,correct
12,2,1,16,4,595,1.204,1,correct
12,2,1,17,6,880,3.178,1,correct
12,2,1,18,8,868,1.41,0,intrusion
12,2,1,19,6,20,2.416,0,intrusion
12,2,1,20,8,738,4.286,1,correct
12,2,1,21,6,635,2.776,1,correct
12,2,1,22,8,143,12.833,0,intrusion
12,2,1,23,6,474,1.44,1,correct
12,2,1,24,8,485,11.086,0,intrusion
12,2,1,25,2,342,0.97,1,correct
12,2,1,26,8,571,3.071,1,correct
12,2,1,27,8,519,1.158,1,correct
12,2,1,28,8,88,7.596,1,correct
12,2,2,1,8,330,9.579,1,correct
12,2,2,2,2,1084,0.993,1,correct
12,2,2,3,6,244,1.415,1,correct
12,2,2,4,8,238,1.346,1,correct
12,2,2,5,4,131,1.192,1,correct
12,2,2,6,2,694,0.87,1,correct
12,2,2,7,6,1050,1.268,1,correct
12,2,2,8,4,437,1.127,1,correct
12,2,2,9,8,504,0.908,1,correct
12,2,2,10,6,360,1.225,1,correct
12,2,2,11,8,939,-1,0,new
12,2,2,12,8,275,1.735,1,correct
12,2,2,13,8,219,12.747,1,correct
12,2,2,14,6,788,1.492,1,correct
12,2,2,15,4,1136,-1,1,correct
12,2,2,16,8,1151,1.14,0,intrusion
12,2,2,17,8,535,11.232,1,correct
12,2,2,18,6,689,1.487,1,correct
12,2,2,19,4,331,1.657,1,correct
12,2,2,20,2,624,1.008,1,correct
12,2,2,21,2,204,-1,1,correct
12,2,2,22,6,1113,-1,1,correct
12,2,2,23,4,989,1.372,1,correct
12,2,2,24,8,996,2.783,1,correct
12,2,2,25,6,1148,1.293,1,correct
12,2,2,26,6,847,1.024,1,correct
12,2,2,27,8,1057,4.26,1,correct
12,2,2,28,4,649,0.954,1,correct
12,2,3,1,4,482,1.494,1,correct
12,2,3,2,6,52,6.283,1,correct
12,2,3,3,6,248,1.288,1,correct
12,2,3,4,8,654,1.569,0,intrusion
12,2,3,5,6,1198,1.63,1,correct
12,2,3,6,6,950,1.208,1,correct
12,2,3,7,2,452,1.144,1,correct
12,2,3,8,8,668,2.204,1,correct
12,2,3,9,2,892,1.627,1,correct
12,2,3,10,6,1196,-1,1,correct
12,2,3,11,8,674,1.734,1,correct
12,2,3,12,4,488,1.052,1,correct
12,2,3,13,2,450,-1,1,correct
12,2,3,14,4,814,1.451,1,correct
12,2,3,15,4,501,-1,1,correct
12,2,3,16,8,337,8.809,1,correct
12,2,3,17,8,396,1.712,1,correct
12,2,3,18,6,186,6.184,1,correct
12,2,3,19,6,630,1.082,1,correct
12,2,3,20,8,875,4.113,1,correct
12,2,3,21,6,99,1.367,1,correct
12,2,3,22,8,388,1.647,1,correct
12,2,3,23,8,1013,1.436,1,correct
12,2,3,24,2,458,0.958,1,correct
12,2,3,25,4,646,5.839,0,intrusion
12,2,3,26,8,1049,18.319,1,correct
12,2,3,27,8,698,-1,0,intrusion
12,2,3,28,4,729,2.285,1,correct
12,2,4,1,8,1026,1.595,1,correct
12,2,4,2,8,454,6.638,1,correct
12,2,4,3,4,791,-1,1,correct
12,2,4,4,6,503,6.828,1,correct
12,2,4,5,8,12,6.744,1,correct
12,2,4,6,6,910,1.702,1,correct
12,2,4,7,2,948,1.049,1,correct
12,2,4,8,4,161,2.759,0,intrusion
12,2,4,9,8,29,1.235,1,correct
12,2,4,10,6,1069,2.286,1,correct
12,2,4,11,6,558,1.141,1,correct
12,2,4,12,8,448,-1,1,correct
12,2,4,13,8,1022,1.9,1,correct
12,2,4,14,8,920,1.073,1,correct
12,2,4,15,2,154,0.978,1,correct
12,2,4,16,4,840,1.603,1,correct
12,2,4,17,8,350,3.184,1,correct
12,2,4,18,6,81,1.756,1,correct
12,2,4,19,6,1051,21.243,1,correct
12,2,4,20,8,1137,1.245,1,correct
12,2,4,21,6,1044,3.484,1,correct
12,2,4,22,6,915,-1,0,intrusion
12,2,4,23,4,721,1.581,1,correct
12,2,4,24,4,702,1.214,1,correct
12,2,4,25,2,1197,-1,1,correct
12,2,4,26,2,476,1.226,1,correct
12,2,4,27,8,861,3.853,1,correct
12,2,4,28,4,366,2.598,1,correct
12,2,5,1,6,1019,1.456,1,correct
12,2,5,2,2,963,-1,1,correct
12,2,5,3,6,85,-1,1,correct
12,2,5,4,6,165,5.287,1,correct
12,2,5,5,8,1022,-1,0,new
12,2,5,6,8,398,2.785,1,correct
12,2,5,7,8,1005,9.248,1,correct
12,2,5,8,4,918,1.199,1,correct
12,2,5,9,6,168,6.193,1,correct
12,2,5,10,2,529,0.915,1,correct
12,2,5,11,8,5,2.249,1,correct
12,2,5,12,8,24,1.806,1,correct
12,2,5,13,4,1173,1.479,1,correct
12,2,5,14,4,818,1.286,1,correct
12,2,5,15,6,622,2.805,1,correct
12,2,5,16,8,50,1.25,1,correct
12,2,5,17,2,1012,1.223,1,correct
12,2,5,18,4,975,-1,1,correct
12,2,5,19,4,138,1.742,1,correct
12,2,5,20,6,427,2.711,1,correct
12,2,5,21,8,882,3.039,1,correct
12,2,5,22,8,486,1.423,1,correct
12,2,5,23,8,726,4.76,1,correct
12,2,5,24,8,790,1.305,1,correct
12,2,5,25,2,565,1.018,1,correct
12,2,5,26,6,844,0.88,1,correct
12,2,5,27,6,670,3.935,1,correct
12,2,5,28,4,75,0.874,1,correct
12,2,6,1,6,74,1.12,1,correct
12,2,6,2,8,595,13.841,0,intrusion
12,2,6,3,8,1130,1.333,1,correct
12,2,6,4,6,648,-1,1,correct
12,2,6,5,6,66,3.139,1,correct
12,2,6,6,8,784,15.366,1,correct
12,2,6,7,8,1052,2.378,1,correct
12,2,6,8,4,869,-1,1,correct
12,2,6,9,8,1032,2.907,1,correct
12,2,6,10,8,273,5.041,1,correct
12,2,6,11,8,181,-1,1,correct
12,2,6,12,6,784,1.222,1,correct
12,2,6,13,4,1065,3.233,1,correct
12,2,6,14,2,408,0.788,1,correct
12,2,6,15,2,216,0.999,1,correct
12,2,6,16,6,1052,0.978,1,correct
12,2,6,17,6,993,0.922,0,intrusion
12,2,6,18,4,1158,1.202,1,correct
12,2,6,19,4,583,1.304,1,correct
12,2,6,20,8,847,11.036,0,intrusion
12,2,6,21,4,960,2.436,1,correct
12,2,6,22,6,1139,3.359,1,correct
12,2,6,23,2,455,0.978,1,correct
12,2,6,24,8,549,21.787,1,correct
12,2,6,25,6,115,2.187,1,correct
12,2,6,26,2,560,-1,1,correct
12,2,6,27,8,480,1.552,1,correct
12,2,6,28,4,1055,1.104,1,correct
12,2,7,1,4,1154,-1,1,correct
12,2,7,2,8,938,1.816,1,correct
12,2,7,3,6,89,1.458,1,correct
12,2,7,4,6,213,5.878,1,correct
12,2,7,5,6,428,3.093,1,correct
12,2,7,6,2,772,0.97,1,correct
12,2,7,7,6,533,-1,1,correct
12,2,7,8,8,116,6.983,1,correct
12,2,7,9,2,350,-1,1,correct
12,2,7,10,8,251,1.857,1,correct
12,2,7,11,8,904,5.038,1,correct
12,2,7,12,8,802,2.28,1,correct
12,2,7,13,4,889,2.27,1,correct
12,2,7,14,4,357,2.862,1,correct
12,2,7,15,8,1135,8.224,0,intrusion
12,2,7,16,2,294,1.057,1,correct
12,2,7,17,6,317,1.307,1,correct
12,2,7,18,6,225,1.578,1,correct
12,2,7,19,6,960,3.178,1,correct
12,2,7,20,6,812,8.025,1,correct
12,2,7,21,8,255,4.608,1,correct
12,2,7,22,4,655,1.116,1,correct
12,2,7,23,2,160,0.918,1,correct
12,2,7,24,4,1106,1.813,1,correct
12,2,7,25,4,754,2.151,1,correct
12,2,7,26,8,17,6.599,1,correct
12,2,7,27,8,1089,-1,1,correct
12,2,7,28,8,1055,3.075,1,correct
12,2,8,1,2,919,1.072,1,correct
12,2,8,2,6,753,3.001,1,correct
12,2,8,3,8,523,11.002,1,correct
12,2,8,4,6,530,2.371,1,correct
12,2,8,5,8,112,-1,1,correct
12,2,8,6,6,861,2.903,1,correct
12,2,8,7,6,1072,2.01,1,correct
12,2,8,8,4,96,1.316,1,correct
12,2,8,9,6,200,0.976,1,correct
12,2,8,10,8,327,2.236,1,correct
12,2,8,11,6,449,2.041,1,correct
12,2,8,12,4,762,1.074,1,correct
12,2,8,13,6,669,-1,1,correct
12,2,8,14,4,592,1.134,1,correct
12,2,8,15,2,272,-1,1,correct
12,2,8,16,8,122,1.273,1,correct
12,2,8,17,8,91,1.059,0,intrusion
12,2,8,18,2,268,0.955,1,correct
12,2,8,19,8,9,6.859,1,correct
12,2,8,20,6,870,1.34,1,correct
12,2,8,21,2,670,1.363,1,correct
12,2,8,22,4,290,2.946,1,correct
12,2,8,23,4,245,1.205,1,correct
12,2,8,24,8,1119,1.216,1,correct
12,2,8,25,8,413,5.842,0,new
12,2,8,26,8,782,4.575,1,correct
12,2,8,27,8,401,1.449,1,correct
12,2,8,28,4,813,-1,1,correct
12,3,1,1,8,765,6.375,1,correct
12,3,1,2,4,1151,1.634,1,correct
12,3,1,3,6,1160,4.815,1,correct
12,3,1,4,8,1037,4.385,1,correct
12,3,1,5,4,430,2.784,1,correct
12,3,1,6,8,98,9.486,1,correct
12,3,1,7,6,990,-1,1,correct
12,3,1,8,8,187,4.423,1,correct
12,3,1,9,4,552,0.911,1,correct
12,3,1,10,6,1078,5.445,0,intrusion
12,3,1,11,4,147,-1,1,correct
12,3,1,12,8,28,-1,1,correct
12,3,1,13,6,1118,7.331,0,intrusion
12,3,1,14,2,487,-1,1,correct
12,3,1,15,2,893,1.164,1,correct
12,3,1,16,8,1102,2.823,1,correct
12,3,1,17,4,222,1.552,1,correct
12,3,1,18,2,355,1.256,1,correct
12,3,1,19,6,921,2.743,1,correct
12,3,1,20,2,171,1.532,1,correct
12,3,1,21,6,26,1.196,1,correct
12,3,1,22,8,190,1.857,1,correct
12,3,1,23,6,130,1.254,1,correct
12,3,1,24,8,174,3.423,1,correct
12,3,1,25,8,14,1.188,1,correct
12,3,1,26,4,196,1.556,1,correct
12,3,1,27,8,1130,1.257,1,correct
12,3,1,28,6,777,2.925,1,correct
12,3,2,1,6,284,3.35,0,intrusion
12,3,2,2,4,1074,-1,0,new
12,3,2,3,4,1098,1.487,1,correct
12,3,2,4,2,117,0.957,1,correct
12,3,2,5,2,903,-1,1,correct
12,3,2,6,6,795,4.441,1,correct
12,3,2,7,2,850,0.962,1,correct
12,3,2,8,4,1080,1.95,1,correct
12,3,2,9,8,1125,1.845,1,correct
12,3,2,10,6,807,1.159,1,correct
12,3,2,11,6,501,-1,0,new
12,3,2,12,6,512,2.774,1,correct
12,3,2,13,8,855,2.142,0,intrusion
12,3,2,14,8,782,2.721,1,correct
12,3,2,15,8,734,3.496,1,correct
12,3,2,16,6,524,1.438,1,correct
12,3,2,17,8,367,11.171,1,correct
12,3,2,18,8,1073,-1,0,intrusion
12,3,2,19,8,5,5.607,1,correct
12,3,2,20,8,213,1.766,1,correct
12,3,2,21,4,314,2.2,1,correct
12,3,2,22,6,138,5.469,1,correct
12,3,2,23,4,754,1.764,1,correct
12,3,2,24,2,280,0.87,1,correct
12,3,2,25,6,175,3.083,1,correct
12,3,2,26,8,626,5.016,1,correct
12,3,2,27,4,1027,0.886,1,correct
12,3,2,28,8,1136,1.352,1,correct
12,3,3,1,6,241,2.346,1,correct
12,3,3,2,8,2,1.298,1,correct
12,3,3,3,8,902,2.902,1,correct
12,3,3,4,8,641,4.745,1,correct
12,3,3,5,4,576,4.651,1,correct
12,3,3,6,8,533,1.853,1,correct
12,3,3,7,4,272,-1,1,correct
12,3,3,8,2,253,1.517,1,correct
12,3,3,9,6,402,1.487,1,correct
12,3,3,10,6,992,1.456,1,correct
12,3,3,11,2,131,1.119,1,correct
12,3,3,12,6,507,11.103,1,correct
12,3,3,13,8,405,-1,1,correct
12,3,3,14,8,1162,1.305,1,correct
12,3,3,15,4,669,1.493,1,correct
12,3,3,16,8,928,2.735,1,correct
12,3,3,17,4,937,1.023,1,correct
12,3,3,18,6,681,-1,1,correct
12,3,3,19,4,951,1.49,1,correct
12,3,3,20,6,1122,1.405,1,correct
12,3,3,21,4,808,1.002,1,correct
12,3,3,22,8,237,3.333,1,correct
12,3,3,23,8,442,7.434,0,intrusion
12,3,3,24,6,404,3.005,1,correct
12,3,3,25,2,548,1.076,1,correct
12,3,3,26,8,609,2.058,1,correct
12,3,3,27,6,1117,7.232,1,correct
12,3,3,28,2,249,-1,1,correct
12,3,4,1,8,110,9.128,1,correct
12,3,4,2,8,429,-1,1,correct
12,3,4,3,6,12,4.529,1,correct
12,3,4,4,8,905,2.873,1,correct
12,3,4,5,4,896,-1,1,correct
12,3,4,6,6,1170,1.296,1,correct
12,3,4,7,6,783,-1,1,correct
12,3,4,8,8,1189,1.521,1,correct
12,3,4,9,4,493,1.391,1,correct
12,3,4,10,4,1000,1.666,1,correct
12,3,4,11,6,1031,1.24,1,correct
12,3,4,12,4,484,1.045,1,correct
12,3,4,13,8,730,5.757,1,correct
12,3,4,14,2,1180,1.025,1,correct
12,3,4,15,6,725,2.279,1,correct
12,3,4,16,2,435,-1,1,correct
12,3,4,17,8,97,2.654,1,correct
12,3,4,18,8,125,1.835,1,correct
12,3,4,19,6,218,1.004,1,correct
12,3,4,20,2,889,0.915,1,correct
12,3,4,21,8,963,2.538,1,correct
12,3,4,22,8,338,1.496,1,correct
12,3,4,23,4,352,1.593,1,correct
12,3,4,24,6,441,2.332,1,correct
12,3,4,25,8,86,1.371,1,correct
12,3,4,26,4,1121,1.551,1,correct
12,3,4,27,2,1196,0.938,1,correct
12,3,4,28,6,317,1.176,1,correct
12,3,5,1,2,515,1.202,1,correct
12,3,5,2,6,571,1.995,1,correct
12,3,5,3,4,684,1.643,1,correct
12,3,5,4,4,616,1.018,1,correct
12,3,5,5,6,716,-1,1,correct
12,3,5,6,4,217,2.525,0,intrusion
12,3,5,7,8,143,4.739,1,correct
12,3,5,8,8,1041,6.355,1,correct
12,3,5,9,8,1094,1.732,1,correct
12,3,5,10,6,1050,2.451,1,correct
12,3,5,11,4,534,2.517,1,correct
12,3,5,12,6,1010,2.627,1,correct
12,3,5,13,4,844,-1,1,correct
12,3,5,14,4,1174,1.083,1,correct
12,3,5,15,8,296,1.379,1,correct
12,3,5,16,2,511,0.835,1,correct
12,3,5,17,8,707,6.482,1,correct
12,3,5,18,8,573,1.525,1,correct
12,3,5,19,6,166,1.097,1,correct
12,3,5,20,6,516,3.664,1,correct
12,3,5,21,8,191,10.235,1,correct
12,3,5,22,6,133,1.274,1,correct
12,3,5,23,8,326,7.04,1,correct
12,3,5,24,2,266,-1,1,correct
12,3,5,25,8,343,18.491,0,intrusion
12,3,5,26,2,383,0.977,1,correct
12,3,5,27,6,450,1.165,1,correct
12,3,5,28,8,952,-1,1,correct
12,3,6,1,6,763,-1,0,intrusion
12,3,6,2,2,655,1.001,1,correct
12,3,6,3,6,918,1.633,1,correct
12,3,6,4,4,945,1.756,1,correct
12,3,6,5,6,803,0.901,1,correct
12,3,6,6,8,165,1.44,0,intrusion
12,3,6,7,8,1041,5.392,1,correct
12,3,6,8,6,315,3.551,1,correct
12,3,6,9,6,962,4.502,1,correct
12,3,6,10,2,1072,1.055,1,correct
12,3,6,11,8,934,0.941,0,intrusion
12,3,6,12,6,1043,1.956,1,correct
12,3,6,13,8,139,3.104,1,correct
12,3,6,14,4,589,1.462,1,correct
12,3,6,15,8,16,22.403,0,intrusion
12,3,6,16,8,862,1.338,1,correct
12,3,6,17,8,208,1.281,1,correct
12,3,6,18,6,562,0.956,1,correct
12,3,6,19,2,771,-1,1,correct
12,3,6,20,4,691,1.165,1,correct
12,3,6,21,4,176,-1,1,correct
12,3,6,22,2,842,1.427,1,correct
12,3,6,23,8,710,1.412,1,correct
12,3,6,24,8,143,-1,1,correct
12,3,6,25,8,138,2.547,1,correct
12,3,6,26,4,1113,1.077,1,correct
12,3,6,27,6,561,6.227,1,correct
12,3,6,28,4,1044,1.728,1,correct
12,3,7,1,2,1120,0.84,1,correct
12,3,7,2,8,725,3.881,0,intrusion
12,3,7,3,8,1046,1.262,1,correct
12,3,7,4,8,170,1.699,1,correct
12,3,7,5,4,1129,0.878,1,correct
12,3,7,6,6,255,2.893,1,correct
12,3,7,7,6,1188,-1,1,correct
12,3,7,8,6,413,2.797,1,correct
12,3,7,9,8,499,3.73,1,correct
12,3,7,10,4,156,1.83,1,correct
12,3,7,11,2,1114,1.245,1,correct
12,3,7,12,2,621,1.579,1,correct
12,3,7,13,4,928,1.11,1,correct
12,3,7,14,8,94,9.219,1,correct
12,3,7,15,8,60,1.434,1,correct
12,3,7,16,2,306,-1,1,correct
12,3,7,17,6,685,1.876,1,correct
12,3,7,18,6,433,2.577,1,correct
12,3,7,19,4,882,1.333,1,correct
12,3,7,20,8,1111,-1,0,intrusion
12,3,7,21,4,425,-1,1,correct
12,3,7,22,8,960,2.019,1,correct
12,3,7,23,6,278,2.962,1,correct
12,3,7,24,6,915,1.716,1,correct
12,3,7,25,8,987,6.527,0,intrusion
12,3,7,26,6,523,2.059,0,intrusion
12,3,7,27,8,319,2.209,1,correct
12,3,7,28,4,631,1.991,1,correct
12,3,8,1,4,158,2.169,1,correct
12,3,8,2,6,563,1.297,1,correct
12,3,8,3,6,1156,-1,1,correct
12,3,8,4,4,574,1.092,1,correct
12,3,8,5,8,503,11.79,0,intrusion
12,3,8,6,6,739,1.034,1,correct
12,3,8,7,8,657,4.258,1,correct
12,3,8,8,8,380,2.436,1,correct
12,3,8,9,2,557,0.962,1,correct
12,3,8,10,6,50,4.908,1,correct
12,3,8,11,8,1127,1.456,1,correct
12,3,8,12,8,315,-1,0,new
12,3,8,13,8,728,1.602,1,correct
12,3,8,14,6,771,19.993,1,correct
12,3,8,15,6,709,7.468,1,correct
12,3,8,16,8,763,7.506,0,intrusion
12,3,8,17,6,310,1.916,1,correct
12,3,8,18,8,974,4.083,1,correct
12,3,8,19,6,1093,1.141,1,correct
12,3,8,20,4,216,1.259,1,correct
12,3,8,21,2,650,-1,1,correct
12,3,8,22,2,1072,0.827,1,correct
12,3,8,23,8,416,2.968,1,correct
12,3,8,24,4,1103,0.766,1,correct
12,3,8,25,8,813,4.775,1,correct
12,3,8,26,4,1081,-1,1,correct
12,3,8,27,2,963,1.293,1,correct
12,3,8,28,4,176,0.909,1,correct
13,1,1,1,4,429,1.263,1,correct
13,1,1,2,6,1133,-1,1,correct
13,1,1,3,6,706,3.814,1,correct
13,1,1,4,2,235,1.237,1,correct
13,1,1,5,2,654,1.027,1,correct
13,1,1,6,6,48,3.413,1,correct
13,1,1,7,6,537,2.608,1,correct
13,1,1,8,8,781,2.486,1,correct
13,1,1,9,6,1100,1.787,1,correct
13,1,1,10,4,408,2.024,1,correct
13,1,1,11,8,78,3.767,1,correct
13,1,1,12,8,1103,6.176,0,intrusion
13,1,1,13,8,36,4.666,0,intrusion
13,1,1,14,8,373,-1,1,correct
13,1,1,15,4,334,-1,1,correct
13,1,1,16,6,827,10.261,1,correct
13,1,1,17,8,269,7.424,1,correct
13,1,1,18,4,1154,2.862,1,correct
13,1,1,19,8,192,4.669,1,correct
13,1,1,20,8,1062,7.632,1,correct
13,1,1,21,4,1152,1.701,1,correct
13,1,1,22,6,366,2.113,1,correct
13,1,1,23,4,1130,2.21,1,correct
13,1,1,24,2,835,1.376,1,correct
13,1,1,25,2,913,-1,1,correct
13,1,1,26,8,758,2.836,1,correct
13,1,1,27,8,1182,3.577,1,correct
13,1,1,28,6,496,1.794,0,intrusion
13,1,2,1,6,177,2.176,1,correct
13,1,2,2,8,975,4.46,0,intrusion
13,1,2,3,6,39,4.098,0,intrusion
13,1,2,4,4,641,3.775,1,correct
13,1,2,5,8,850,5.775,1,correct
13,1,2,6,8,605,3.502,0,intrusion
13,1,2,7,2,697,-1,1,correct
13,1,2,8,2,1064,1.254,1,correct
13,1,2,9,6,167,2.154,1,correct
13,1,2,10,6,86,-1,1,correct
13,1,2,11,6,648,4.701,1,correct
13,1,2,12,6,326,2.021,1,correct
13,1,2,13,4,190,-1,1,correct
13,1,2,14,8,416,2.477,1,correct
13,1,2,15,2,353,1.02,1,correct
13,1,2,16,4,1136,1.917,1,correct
13,1,2,17,8,734,-1,0,intrusion
13,1,2,18,6,597,2.433,1,correct
13,1,2,19,6,392,5.579,1,correct
13,1,2,20,4,941,1.646,1,correct
13,1,2,21,8,696,2.615,1,correct
13,1,2,22,8,695,10.155,1,correct
13,1,2,23,2,484,2.161,1,correct
13,1,2,24,8,744,5.075,0,intrusion
13,1,2,25,8,219,3.329,1,correct
13,1,2,26,4,426,1.728,1,correct
13,1,2,27,4,98,2.146,1,correct
13,1,2,28,8,963,3.445,1,correct
13,1,3,1,2,915,1.65,1,correct
13,1,3,2,8,937,2.805,1,correct
13,1,3,3,4,1107,1.258,1,correct
13,1,3,4,8,1047,2.208,1,correct
13,1,3,5,2,197,-1,1,correct
13,1,3,6,4,616,2.307,1,correct
13,1,3,7,6,998,1.976,1,correct
13,1,3,8,8,1129,4.34,1,correct
13,1,3,9,6,1,2.623,1,correct
13,1,3,10,6,515,5.238,0,intrusion
13,1,3,11,2,681,1.467,1,correct
13,1,3,12,8,96,-1,0,intrusion
13,1,3,13,6,1091,4.789,0,intrusion
13,1,3,14,4,239,2.085,1,correct
13,1,3,15,4,91,1.418,1,correct
13,1,3,16,6,802,2.365,1,correct
13,1,3,17,8,1193,6.752,0,intrusion
13,1,3,18,8,259,1.996,1,correct
13,1,3,19,8,1052,2.263,1,correct
13,1,3,20,8,208,9.587,0,intrusion
13,1,3,21,8,628,8.444,1,correct
13,1,3,22,6,31,3.496,1,correct
13,1,3,23,2,741,1.211,1,correct
13,1,3,24,4,1146,-1,1,correct
13,1,3,25,4,452,2.29,1,correct
13,1,3,26,6,640,-1,1,correct
13,1,3,27,6,693,3.469,1,correct
13,1,3,28,8,762,7.603,1,correct
13,1,4,1,2,394,2.001,1,correct
13,1,4,2,8,607,26.149,1,correct
13,1,4,3,8,116,2.31,1,correct
13,1,4,4,8,627,18.206,0,new
13,1,4,5,4,711,1.643,1,correct
13,1,4,6,8,670,3.93,0,intrusion
13,1,4,7,4,948,-1,1,correct
13,1,4,8,4,511,13.614,1,correct
13,1,4,9,8,1078,2.915,1,correct
13,1,4,10,6,1196,10.989,1,correct
13,1,4,11,2,447,1.779,1,correct
13,1,4,12,6,486,14.936,1,correct
13,1,4,13,8,651,2.942,1,correct
13,1,4,14,8,553,2.234,1,correct
13,1,4,15,2,438,-1,1,correct
13,1,4,16,2,907,11.085,1,correct
13,1,4,17,6,1011,-1,1,correct
13,1,4,18,4,1057,1.836,1,correct
13,1,4,19,4,666,1.796,1,correct
13,1,4,20,6,1049,3.166,1,correct
13,1,4,21,4,900,2.11,1,correct
13,1,4,22,8,305,-1,1,correct
13,1,4,23,6,292,6.855,0,intrusion
13,1,4,24,6,530,3.447,1,correct
13,1,4,25,6,922,3.061,1,correct
13,1,4,26,8,175,13.28,1,correct
13,1,4,27,6,1071,3.577,1,correct
13,1,4,28,8,1161,1.789,1,correct
13,1,5,1,6,107,5.134,0,new
13,1,5,2,8,992,6.653,1,correct
13,1,5,3,4,570,-1,1,correct
13,1,5,4,2,723,1.48,1,correct
13,1,5,5,4,927,2.28,1,correct
13,1,5,6,2,195,1.891,1,correct
13,1,5,7,8,393,6.374,1,correct
13,1,5,8,6,903,3.279,1,correct
13,1,5,9,8,784,9.982,1,correct
13,1,5,10,4,503,2.122,1,correct
13,1,5,11,8,265,3.485,1,correct
13,1,5,12,4,128,2.662,1,correct
13,1,5,13,6,955,4.813,1,correct
13,1,5,14,8,1033,3.741,1,correct
13,1,5,15,8,313,2.01,1,correct
13,1,5,16,8,690,-1,1,correct
13,1,5,17,8,786,4.961,0,intrusion
13,1,5,18,4,66,1.688,1,correct
13,1,5,19,6,449,-1,1,correct
13,1,5,20,6,202,5.129,1,correct
13,1,5,21,6,355,1.902,1,correct
13,1,5,22,2,346,1.181,1,correct
13,1,5,23,4,1018,2.019,1,correct
13,1,5,24,2,246,-1,1,correct
13,1,5,25,8,272,6.354,0,intrusion
13,1,5,26,6,349,3.916,1,correct
13,1,5,27,6,793,2.858,1,correct
13,1,5,28,8,399,2.17,1,correct
13,1,6,1,8,428,3.485,1,correct
13,1,6,2,2,45,2.578,1,correct
13,1,6,3,2,465,1.06,1,correct
13,1,6,4,8,239,-1,0,intrusion
13,1,6,5,8,142,3.273,1,correct
13,1,6,6,2,1029,-1,1,correct
13,1,6,7,8,655,5.689,0,intrusion
13,1,6,8,6,671,33.056,1,correct
13,1,6,9,6,806,3.011,1,correct
13,1,6,10,8,184,2.655,1,correct
13,1,6,11,8,94,2.748,1,correct
13,1,6,12,6,64,2.42,1,correct
13,1,6,13,4,848,3.368,1,correct
13,1,6,14,6,660,9.492,1,correct
13,1,6,15,4,155,3.661,1,correct
13,1,6,16,8,5,4.145,0,intrusion
13,1,6,17,8,590,3.353,0,intrusion
13,1,6,18,2,792,3.292,1,correct
13,1,6,19,4,710,2.374,1,correct
13,1,6,20,6,501,3.765,1,correct
13,1,6,21,6,443,-1,1,correct
13,1,6,22,6,1168,2.929,1,correct
13,1,6,23,4,951,2.264,1,correct
13,1,6,24,4,337,1.27,1,correct
13,1,6,25,4,721,-1,1,correct
13,1,6,26,8,952,7.542,0,intrusion
13,1,6,27,6,361,2.611,1,correct
13,1,6,28,8,468,2.678,0,intrusion
13,1,7,1,6,630,1.629,1,correct
13,1,7,2,6,809,2.27,1,correct
13,1,7,3,2,10,0.891,1,correct
13,1,7,4,8,325,4.933,1,correct
13,1,7,5,8,752,2.448,1,correct
13,1,7,6,8,196,5.063,0,intrusion
13,1,7,7,8,513,3.965,0,intrusion
13,1,7,8,8,873,-1,1,correct
13,1,7,9,6,1034,1.801,1,correct
13,1,7,10,6,74,3.236,0,intrusion
13,1,7,11,8,537,3.797,1,correct
13,1,7,12,4,94,1.996,1,correct
13,1,7,13,6,931,3.339,1,correct
13,1,7,14,8,806,3.421,1,correct
13,1,7,15,4,1131,1.494,1,correct
13,1,7,16,8,1121,6.265,0,intrusion
13,1,7,17,4,516,1.054,1,correct
13,1,7,18,8,1188,5.909,1,correct
13,1,7,19,6,961,-1,1,correct
13,1,7,20,8,463,3.297,1,correct
13,1,7,21,6,410,2.085,1,correct
13,1,7,22,4,604,2.195,1,correct
13,1,7,23,6,368,1.934,1,correct
13,1,7,24,4,962,1.94,1,correct
13,1,7,25,2,32,1.573,1,correct
13,1,7,26,2,31,-1,1,correct
13,1,7,27,2,20,1.142,0,intrusion
13,1,7,28,4,481,-1,1,correct
13,2,1,1,6,686,1.023,1,correct
13,2,1,2,8,155,3.565,0,intrusion
13,2,1,3,4,290,1.808,1,correct
13,2,1,4,4,696,0.914,1,correct
13,2,1,5,4,656,0.849,1,correct
13,2,1,6,6,652,2.418,1,correct
13,2,1,7,4,60,1.564,1,correct
13,2,1,8,6,722,1.979,1,correct
13,2,1,9,6,996,2.6,1,correct
13,2,1,10,8,47,7.888,0,intrusion
13,2,1,11,6,769,1.508,1,correct
13,2,1,12,2,487,1.002,1,correct
13,2,1,13,6,131,2.316,1,correct
13,2,1,14,8,484,6.178,0,intrusion
13,2,1,15,8,368,-1,0,intrusion
13,2,1,16,6,110,4.182,1,correct
13,2,1,17,8,191,1.21,1,correct
13,2,1,18,8,506,4.065,1,correct
13,2,1,19,2,385,-1,1,correct
13,2,1,20,4,100,-1,1,correct
13,2,1,21,8,889,1.196,1,correct
13,2,1,22,2,804,0.983,1,correct
13,2,1,23,8,1011,8.99,1,correct
13,2,1,24,2,619,1.029,1,correct
13,2,1,25,8,812,3.241,1,correct
13,2,1,26,6,124,-1,0,intrusion
13,2,1,27,4,868,2.089,1,correct
13,2,1,28,8,1166,4.593,0,intrusion
13,2,2,1,4,322,1.894,1,correct
13,2,2,2,6,867,2.55,1,correct
13,2,2,3,8,292,-1,0,intrusion
13,2,2,4,4,940,1.219,1,correct
13,2,2,5,4,718,2.527,1,correct
13,2,2,6,8,238,2.594,1,correct
13,2,2,7,6,1092,11.206,1,correct
13,2,2,8,2,730,0.885,1,correct
13,2,2,9,4,462,1.12,1,correct
13,2,2,10,6,424,1.138,1,correct
13,2,2,11,8,426,2.098,1,correct
13,2,2,12,6,45,-1,0,new
13,2,2,13,8,213,2.7,1,correct
13,2,2,14,8,775,1.69,1,correct
13,2,2,15,2,924,1.441,1,correct
13,2,2,16,8,411,2.8,1,correct
13,2,2,17,4,61,1.36,1,correct
13,2,2,18,2,992,1.182,1,correct
13,2,2,19,8,916,3.707,1,correct
13,2,2,20,8,314,2.949,1,correct
13,2,2,21,6,548,2.292,1,correct
13,2,2,22,8,307,4.113,0,intrusion
13,2,2,23,6,808,4.572,1,correct
13,2,2,24,2,856,-1,1,correct
13,2,2,25,6,386,1.908,1,correct
13,2,2,26,4,698,-1,1,correct
13,2,2,27,6,576,4.023,0,intrusion
13,2,2,28,8,648,2.117,1,correct
13,2,3,1,2,310,2.082,1,correct
13,2,3,2,6,640,1.897,1,correct
13,2,3,3,4,184,1.166,1,correct
13,2,3,4,8,413,-1,1,correct
13,2,3,5,8,28,2.851,1,correct
13,2,3,6,8,745,1.406,1,correct
13,2,3,7,6,161,1.19,1,correct
13,2,3,8,2,1187,-1,1,correct
13,2,3,9,8,524,5.411,1,correct
13,2,3,10,6,205,-1,0,new
13,2,3,11,4,1055,1.707,1,correct
13,2,3,12,8,69,3.182,1,correct
13,2,3,13,6,510,3.45,1,correct
13,2,3,14,6,834,3.21,1,correct
13,2,3,15,8,112,6.744,0,intrusion
13,2,3,16,6,1150,4.357,1,correct
13,2,3,17,8,1004,3.664,0,intrusion
13,2,3,18,4,1087,1.381,1,correct
13,2,3,19,4,678,1.614,1,correct
13,2,3,20,4,1052,-1,1,correct
13,2,3,21,2,641,0.87,1,correct
13,2,3,22,8,463,1.54,1,correct
13,2,3,23,2,497,1.5,1,correct
13,2,3,24,6,227,2.911,1,correct
13,2,3,25,6,6,11.586,1,correct
13,2,3,26,8,1180,8.563,0,intrusion
13,2,3,27,8,318,2.854,1,correct
13,2,3,28,4,1006,2.159,1,correct
13,2,4,1,6,312,2.067,1,correct
13,2,4,2,2,1193,0.754,1,correct
13,2,4,3,8,144,-1,1,correct
13,2,4,4,6,1162,8.147,0,intrusion
13,2,4,5,4,533,2.078,1,correct
13,2,4,6,6,440,1.689,1,correct
13,2,4,7,4,485,1.787,1,correct
13,2,4,8,8,549,1.566,1,correct
13,2,4,9,8,681,6.557,1,correct
13,2,4,10,6,839,1.699,1,correct
13,2,4,11,6,544,-1,1,correct
13,2,4,12,8,173,6.374,0,intrusion
13,2,4,13,4,1100,1.535,1,correct
13,2,4,14,8,222,1.8,1,correct
13,2,4,15,4,1133,2.078,1,correct
13,2,4,16,6,604,1.394,1,correct
13,2,4,17,8,1154,6.952,0,intrusion
13,2,4,18,2,283,-1,1,correct
13,2,4,19,6,118,2.799,1,correct
13,2,4,20,8,805,4.564,0,intrusion
13,2,4,21,8,276,3.132,1,correct
13,2,4,22,8,822,8.698,0,intrusion
13,2,4,23,4,855,-1,1,correct
13,2,4,24,2,57,1.143,1,correct
13,2,4,25,2,1124,3.491,1,correct
13,2,4,26,8,268,3.629,0,intrusion
13,2,4,27,4,263,1.876,1,correct
13,2,4,28,6,1069,1.594,1,correct
13,2,5,1,8,602,3.251,0,intrusion
13,2,5,2,2,473,-1,1,correct
13,2,5,3,4,96,1.877,1,correct
13,2,5,4,8,45,-1,0,new
13,2,5,5,8,957,6.149,1,correct
13,2,5,6,4,559,-1,1,correct
13,2,5,7,6,799,2.848,1,correct
13,2,5,8,6,813,4.659,1,correct
13,2,5,9,8,321,5.298,1,correct
13,2,5,10,4,77,1.332,1,correct
13,2,5,11,8,168,2.43,1,correct
13,2,5,12,6,999,6.26,0,intrusion
13,2,5,13,6,258,1.242,1,correct
13,2,5,14,6,494,3.669,0,intrusion
13,2,5,15,8,556,6.872,1,correct
13,2,5,16,6,4,1.433,0,intrusion
13,2,5,17,8,83,9.278,0,intrusion
13,2,5,18,4,68,1.738,1,correct
13,2,5,19,8,486,2.054,1,correct
13,2,5,20,2,433,1.722,1,correct
13,2,5,21,6,1063,2.143,1,correct
13,2,5,22,8,1102,2.723,1,correct
13,2,5,23,2,26,0.968,1,correct
13,2,5,24,4,1115,1.69,1,correct
13,2,5,25,6,381,-1,1,correct
13,2,5,26,8,707,4.591,0,intrusion
13,2,5,27,4,635,1.872,1,correct
13,2,5,28,2,937,1.003,1,correct
13,2,6,1,8,837,-1,1,correct
13,2,6,2,4,658,1.874,1,correct
13,2,6,3,2,1003,-1,1,correct
13,2,6,4,4,915,2.208,1,correct
13,2,6,5,8,362,3.251,1,correct
13,2,6,6,4,520,2.037,1,correct
13,2,6,7,4,993,-1,1,correct
13,2,6,8,2,33,1.193,1,correct
13,2,6,9,6,230,1.336,1,correct
13,2,6,10,6,1009,-1,1,correct
13,2,6,11,8,1093,4.124,1,correct
13,2,6,12,6,568,3.203,1,correct
13,2,6,13,2,998,0.866,1,correct
13,2,6,14,6,150,0.966,1,correct
13,2,6,15,8,944,3.255,1,correct
13,2,6,16,8,380,2.303,1,correct
13,2,6,17,6,932,1.847,1,correct
13,2,6,18,6,636,6.073,0,intrusion
13,2,6,19,4,97,1.706,1,correct
13,2,6,20,6,878,5.569,1,correct
13,2,6,21,8,217,6.645,1,correct
13,2,6,22,8,725,3.926,1,correct
13,2,6,23,8,984,5.2,1,correct
13,2,6,24,2,802,1.386,1,correct
13,2,6,25,4,982,1.328,1,correct
13,2,6,26,8,967,3.189,0,intrusion
13,2,6,27,8,45,2.532,1,correct
13,2,6,28,6,865,9.474,0,intrusion
13,2,7,1,6,924,-1,0,intrusion
13,2,7,2,6,356,2.515,1,correct
13,2,7,3,8,831,5.337,1,correct
13,2,7,4,4,942,1.621,1,correct
13,2,7,5,8,77,3.115,1,correct
13,2,7,6,4,1047,-1,1,correct
13,2,7,7,6,161,4.656,0,intrusion
13,2,7,8,4,949,1.405,1,correct
13,2,7,9,6,556,2.364,0,intrusion
13,2,7,10,2,347,-1,1,correct
13,2,7,11,6,1038,2.731,1,correct
13,2,7,12,4,216,1.528,1,correct
13,2,7,13,8,576,2.612,1,correct
13,2,7,14,2,396,0.827,1,correct
13,2,7,15,8,535,3.006,0,intrusion
13,2,7,16,6,484,3.11,1,correct
13,2,7,17,8,1170,1.85,1,correct
13,2,7,18,2,431,1.323,1,correct
13,2,7,19,8,451,1.67,0,intrusion
13,2,7,20,4,930,0.921,1,correct
13,2,7,21,8,760,2.268,1,correct
13,2,7,22,8,395,3.124,1,correct
13,2,7,23,2,54,1.546,1,correct
13,2,7,24,6,743,3.081,0,intrusion
13,2,7,25,8,1112,-1,1,correct
13,2,7,26,6,965,3.308,1,correct
13,2,7,27,8,979,3.514,0,intrusion
13,2,7,28,4,675,1.468,1,correct
13,2,8,1,8,64,2.787,0,new
13,2,8,2,6,687,2.652,1,correct
13,2,8,3,8,1173,2.794,1,correct
13,2,8,4,2,645,1.204,1,correct
13,2,8,5,2,459,0.97,1,correct
13,2,8,6,6,114,1.744,1,correct
13,2,8,7,6,169,4.531,0,intrusion
13,2,8,8,6,588,-1,1,correct
13,2,8,9,4,367,1.274,1,correct
13,2,8,10,8,826,1.766,1,correct
13,2,8,11,8,957,-1,0,intrusion
13,2,8,12,8,563,2.581,0,intrusion
13,2,8,13,6,822,1.835,1,correct
13,2,8,14,4,18,1.762,1,correct
13,2,8,15,8,667,2.21,1,correct
13,2,8,16,2,585,0.77,1,correct
13,2,8,17,4,462,0.903,1,correct
13,2,8,18,8,138,3.643,0,intrusion
13,2,8,19,6,773,1.955,1,correct
13,2,8,20,8,41,6.112,0,intrusion
13,2,8,21,4,917,0.991,1,correct
13,2,8,22,8,423,1.947,0,intrusion
13,2,8,23,4,1120,1.776,1,correct
13,2,8,24,2,810,-1,1,correct
13,2,8,25,8,635,2.858,0,intrusion
13,2,8,26,6,1181,2.182,0,intrusion
13,2,8,27,6,611,1.709,1,correct
13,2,8,28,4,180,-1,1,correct
13,3,1,1,2,433,1.71,1,correct
13,3,1,2,4,607,-1,1,correct
13,3,1,3,8,1021,2.287,1,correct
13,3,1,4,8,566,1.486,1,correct
13,3,1,5,8,711,2.312,1,correct
13,3,1,6,6,1189,2.068,1,correct
13,3,1,7,8,553,-1,1,correct
13,3,1,8,6,26,5.268,0,intrusion
13,3,1,9,2,353,-1,1,correct
13,3,1,10,8,878,6.93,0,intrusion
13,3,1,11,4,1184,1.968,1,correct
13,3,1,12,4,703,1.86,1,correct
13,3,1,13,8,1165,6.724,1,correct
13,3,1,14,4,439,1.62,1,correct
13,3,1,15,8,144,1.897,1,correct
13,3,1,16,2,640,1.379,1,correct
13,3,1,17,6,591,1.51,1,correct
13,3,1,18,8,104,9.224,0,intrusion
13,3,1,19,6,82,1.997,1,correct
13,3,1,20,4,743,1.3,1,correct
13,3,1,21,6,527,1.52,1,correct
13,3,1,22,6,197,4.654,0,intrusion
13,3,1,23,6,1009,3.354,1,correct
13,3,1,24,2,328,0.906,1,correct
13,3,1,25,8,911,9.792,0,intrusion
13,3,1,26,8,212,15.205,1,correct
13,3,1,27,4,941,1.16,1,correct
13,3,1,28,6,31,-1,1,correct
13,3,2,1,6,951,2.23,1,correct
13,3,2,2,6,933,2.269,1,correct
13,3,2,3,8,287,3.394,1,correct
13,3,2,4,8,1178,2.665,1,correct
13,3,2,5,8,773,2.708,1,correct
13,3,2,6,8,670,6.625,0,intrusion
13,3,2,7,8,1047,3.105,0,intrusion
13,3,2,8,6,692,2.522,1,correct
13,3,2,9,8,463,4.844,1,correct
13,3,2,10,2,522,0.882,1,correct
13,3,2,11,8,680,-1,1,correct
13,3,2,12,6,296,11.275,1,correct
13,3,2,13,4,23,0.971,1,correct
13,3,2,14,6,890,1.944,1,correct
13,3,2,15,2,1172,-1,1,correct
13,3,2,16,8,841,2.191,1,correct
13,3,2,17,4,257,1.561,1,correct
13,3,2,18,6,578,-1,1,correct
13,3,2,19,4,736,1.682,1,correct
13,3,2,20,6,443,2.176,0,intrusion
13,3,2,21,8,731,5.725,0,intrusion
13,3,2,22,8,547,5.829,0,intrusion
13,3,2,23,4,991,1.352,1,correct
13,3,2,24,4,979,1.658,1,correct
13,3,2,25,2,982,1.205,1,correct
13,3,2,26,4,808,-1,1,correct
13,3,2,27,2,410,0.838,1,correct
13,3,2,28,6,698,2.122,1,correct
13,3,3,1,4,681,3.616,1,correct
13,3,3,2,2,1060,2.002,1,correct
13,3,3,3,8,240,1.708,1,correct
13,3,3,4,2,1138,0.744,1,correct
13,3,3,5,6,930,1.054,1,correct
13,3,3,6,8,95,3.151,1,correct
13,3,3,7,6,593,3.272,1,correct
13,3,3,8,4,1149,1.489,1,correct
13,3,3,9,8,311,2.475,1,correct
13,3,3,10,8,1198,2.263,1,correct
13,3,3,11,2,742,-1,1,correct
13,3,3,12,6,423,4.326,1,correct
13,3,3,13,6,872,1.764,1,correct
13,3,3,14,4,5,-1,1,correct
13,3,3,15,8,338,2.859,0,intrusion
13,3,3,16,8,696,1.731,1,correct
13,3,3,17,8,540,1.994,1,correct
13,3,3,18,6,367,1.03,1,correct
13,3,3,19,6,226,1.245,1,correct
13,3,3,20,4,793,2.409,1,correct
13,3,3,21,8,153,-1,0,intrusion
13,3,3,22,2,1040,1.259,1,correct
13,3,3,23,8,1115,1.702,1,correct
13,3,3,24,6,1013,-1,1,correct
13,3,3,25,4,98,1.244,1,correct
13,3,3,26,4,398,1.339,1,correct
13,3,3,27,6,946,1.428,1,correct
13,3,3,28,8,634,9.36,0,intrusion
13,3,4,1,4,971,0.91,1,correct
13,3,4,2,4,783,-1,1,correct
13,3,4,3,6,936,-1,1,correct
13,3,4,4,8,554,7.153,1,correct
13,3,4,5,2,1070,1.039,1,correct
13,3,4,6,4,142,1.045,1,correct
13,3,4,7,4,300,1.237,1,correct
13,3,4,8,8,669,1.87,1,correct
13,3,4,9,6,196,1.508,1,correct
13,3,4,10,8,457,1.779,0,intrusion
13,3,4,11,6,136,1.702,1,correct
13,3,4,12,6,802,1.923,1,correct
13,3,4,13,8,131,2.229,1,correct
13,3,4,14,6,317,1.499,1,correct
13,3,4,15,4,126,1.499,0,intrusion
13,3,4,16,6,387,1.571,1,correct
13,3,4,17,8,1022,1.796,1,correct
13,3,4,18,4,560,1.001,1,correct
13,3,4,19,6,667,0.944,1,correct
13,3,4,20,8,1144,1.189,1,correct
13,3,4,21,6,254,1.882,1,correct
13,3,4,22,8,749,2.199,1,correct
13,3,4,23,8,73,1.202,1,correct
13,3,4,24,2,46,0.838,1,correct
13,3,4,25,8,109,4.121,0,intrusion
13,3,4,26,8,446,-1,1,correct
13,3,4,27,2,815,1.169,1,correct
13,3,4,28,2,259,-1,1,correct
13,3,5,1,2,199,-1,1,correct
13,3,5,2,2,577,1.202,1,correct
13,3,5,3,2,600,0.792,1,correct
13,3,5,4,8,977,0.933,1,correct
13,3,5,5,6,548,8.934,1,correct
13,3,5,6,4,366,13.559,1,correct
13,3,5,7,6,372,2.567,1,correct
13,3,5,8,8,437,9.994,0,intrusion
13,3,5,9,4,239,1.156,1,correct
13,3,5,10,8,505,2.291,1,correct
13,3,5,11,6,712,8.825,1,correct
13,3,5,12,6,424,3.401,1,correct
13,3,5,13,6,278,1.444,1,correct
13,3,5,14,8,120,-1,1,correct
13,3,5,15,8,1135,2.728,1,correct
13,3,5,16,4,1113,1.118,1,correct
13,3,5,17,6,436,-1,0,intrusion
13,3,5,18,4,931,1.139,1,correct
13,3,5,19,4,124,-1,1,correct
13,3,5,20,8,896,5.161,1,correct
13,3,5,21,4,207,2.268,1,correct
13,3,5,22,2,396,0.959,1,correct
13,3,5,23,6,908,1.356,1,correct
13,3,5,24,8,47,1.432,1,correct
13,3,5,25,8,582,1.665,1,correct
13,3,5,26,8,68,6.403,0,intrusion
13,3,5,27,8,960,1.882,1,correct
13,3,5,28,6,751,3.998,1,correct
13,3,6,1,2,59,1.355,1,correct
13,3,6,2,4,118,1.122,1,correct
13,3,6,3,8,905,4.542,1,correct
13,3,6,4,2,250,-1,1,correct
13,3,6,5,8,81,1.154,1,correct
13,3,6,6,8,1191,2.262,1,correct
13,3,6,7,6,961,3.76,1,correct
13,3,6,8,4,17,-1,1,correct
13,3,6,9,6,631,1.183,1,correct
13,3,6,10,8,668,17.494,1,correct
13,3,6,11,8,658,-1,0,intrusion
13,3,6,12,4,269,1.391,1,correct
13,3,6,13,4,701,1.563,1,correct
13,3,6,14,2,490,1.085,1,correct
13,3,6,15,4,635,1.455,1,correct
13,3,6,16,6,149,-1,1,correct
13,3,6,17,4,1066,1.989,1,correct
13,3,6,18,8,463,4.805,1,correct
13,3,6,19,8,592,1.771,1,correct
13,3,6,20,2,44,0.867,1,correct
13,3,6,21,6,496,4.336,1,correct
13,3,6,22,8,352,1.804,1,correct
13,3,6,23,6,1193,1.883,1,correct
13,3,6,24,6,391,2.07,1,correct
13,3,6,25,6,644,1.785,1,correct
13,3,6,26,6,210,1.862,1,correct
13,3,6,27,8,1043,3.933,1,correct
13,3,6,28,8,544,2.391,1,correct
13,3,7,1,8,858,4.953,1,correct
13,3,7,2,2,368,0.975,1,correct
13,3,7,3,6,561,10.998,1,correct
13,3,7,4,6,689,1.992,1,correct
13,3,7,5,2,7,-1,1,correct
13,3,7,6,4,763,1.295,1,correct
13,3,7,7,6,1103,1.78,1,correct
13,3,7,8,8,399,4.721,1,correct
13,3,7,9,8,1008,-1,1,correct
13,3,7,10,8,609,1.315,1,correct
13,3,7,11,6,188,2.124,1,correct
13,3,7,12,8,117,2.538,1,correct
13,3,7,13,4,203,0.982,1,correct
13,3,7,14,8,766,11.529,1,correct
13,3,7,15,6,819,-1,0,intrusion
13,3,7,16,8,682,4.736,0,intrusion
13,3,7,17,2,211,1.402,1,correct
13,3,7,18,8,172,1.532,1,correct
13,3,7,19,4,365,1.359,1,correct
13,3,7,20,4,476,1.023,1,correct
13,3,7,21,4,1039,-1,1,correct
13,3,7,22,2,860,0.852,1,correct
13,3,7,23,4,54,0.832,1,correct
13,3,7,24,8,826,2.027,1,correct
13,3,7,25,6,128,1.938,1,correct
13,3,7,26,8,376,3.986,1,correct
13,3,7,27,6,360,2.449,1,correct
13,3,7,28,6,345,1.3,1,correct
13,3,8,1,2,1192,2.775,1,correct
13,3,8,2,2,340,-1,1,correct
13,3,8,3,8,354,1.675,1,correct
13,3,8,4,6,314,2.022,1,correct
13,3,8,5,4,591,-1,1,correct
13,3,8,6,6,183,-1,0,intrusion
13,3,8,7,8,926,1.43,1,correct
13,3,8,8,6,276,2.587,1,correct
13,3,8,9,4,713,1.272,1,correct
13,3,8,10,6,109,1.531,1,correct
13,3,8,11,6,596,1.622,1,correct
13,3,8,12,8,394,2.262,1,correct
13,3,8,13,6,243,2.207,1,correct
13,3,8,14,8,1027,2.564,1,correct
13,3,8,15,8,14,-1,1,correct
13,3,8,16,2,944,0.86,1,correct
13,3,8,17,6,890,1.497,1,correct
13,3,8,18,6,261,1.177,1,correct
13,3,8,19,8,604,2.561,1,correct
13,3,8,20,4,984,0.988,1,correct
13,3,8,21,2,643,1.873,1,correct
13,3,8,22,4,341,0.857,1,correct
13,3,8,23,8,500,1.641,1,correct
13,3,8,24,8,639,1.022,1,correct
13,3,8,25,4,195,2.142,1,correct
13,3,8,26,8,642,8.89,1,correct
13,3,8,27,4,322,2.067,1,correct
13,3,8,28,8,332,2.587,1,correct
14,1,1,1,2,567,1.32,1,correct
14,1,1,2,4,474,1.623,1,correct
14,1,1,3,4,334,4.58,1,correct
14,1,1,4,6,457,1.353,1,correct
14,1,1,5,6,575,-1,1,correct
14,1,1,6,6,1057,1.824,1,correct
14,1,1,7,8,453,3.352,1,correct
14,1,1,8,4,506,-1,0,intrusion
14,1,1,9,8,1109,8.058,0,intrusion
14,1,1,10,6,521,6.619,1,correct
14,1,1,11,8,62,4.821,0,intrusion
14,1,1,12,8,376,2.056,1,correct
14,1,1,13,4,228,1.535,1,correct
14,1,1,14,6,617,4.503,1,correct
14,1,1,15,8,269,2.087,1,correct
14,1,1,16,8,622,1.786,1,correct
14,1,1,17,2,997,1.679,1,correct
14,1,1,18,6,845,6.619,0,intrusion
14,1,1,19,8,1177,3.358,0,intrusion
14,1,1,20,8,456,10.15,0,intrusion
14,1,1,21,8,353,4.383,0,intrusion
14,1,1,22,6,924,2.741,1,correct
14,1,1,23,2,657,-1,1,correct
14,1,1,24,8,627,-1,1,correct
14,1,1,25,4,1020,2.038,1,correct
14,1,1,26,6,605,4.787,1,correct
14,1,1,27,4,891,3.65,0,intrusion
14,1,1,28,2,890,0.903,1,correct
14,1,2,1,6,1119,2.525,0,intrusion
14,1,2,2,2,428,1.418,1,correct
14,1,2,3,8,971,-1,1,correct
14,1,2,4,8,662,4.203,0,intrusion
14,1,2,5,6,502,-1,1,correct
14,1,2,6,8,202,1.93,1,correct
14,1,2,7,6,1152,2.153,0,intrusion
14,1,2,8,8,175,1.584,1,correct
14,1,2,9,8,471,3.849,0,intrusion
14,1,2,10,8,537,6.157,1,correct
14,1,2,11,4,1176,-1,1,correct
14,1,2,12,6,479,6.631,1,correct
14,1,2,13,6,454,1.898,1,correct
14,1,2,14,2,178,1.206,1,correct
14,1,2,15,6,787,7.791,0,intrusion
14,1,2,16,8,293,9.397,1,correct
14,1,2,17,4,476,1.888,1,correct
14,1,2,18,8,863,3.915,0,intrusion
14,1,2,19,8,795,2.076,1,correct
14,1,2,20,2,539,1.552,1,correct
14,1,2,21,4,708,1.664,0,intrusion
14,1,2,22,2,316,-1,1,correct
14,1,2,23,8,900,10.784,1,correct
14,1,2,24,6,885,1.12,1,correct
14,1,2,25,4,926,3.923,1,correct
14,1,2,26,4,1055,1.813,1,correct
14,1,2,27,4,1117,2.555,1,correct
14,1,2,28,6,748,2.389,1,correct
14,1,3,1,8,168,5.011,1,correct
14,1,3,2,4,108,1.991,1,correct
14,1,3,3,4,579,2.05,1,correct
14,1,3,4,2,1148,-1,1,correct
14,1,3,5,2,459,0.819,1,correct
14,1,3,6,8,173,2.826,1,correct
14,1,3,7,4,635,1.17,1,correct
14,1,3,8,6,1167,2.071,0,intrusion
14,1,3,9,2,879,1.634,1,correct
14,1,3,10,6,730,1.673,1,correct
14,1,3,11,8,963,3.25,1,correct
14,1,3,12,8,1079,6.207,0,intrusion
14,1,3,13,6,645,1.33,1,correct
14,1,3,14,6,649,-1,1,correct
14,1,3,15,8,85,2.396,1,correct
14,1,3,16,6,632,3.691,0,intrusion
14,1,3,17,2,833,1.307,1,correct
14,1,3,18,4,1023,-1,1,correct
14,1,3,19,8,839,15.419,0,intrusion
14,1,3,20,6,630,1.101,1,correct
14,1,3,21,8,672,8.322,1,correct
14,1,3,22,6,182,8.373,0,intrusion
14,1,3,23,4,98,2.457,1,correct
14,1,3,24,8,523,12.41,0,intrusion
14,1,3,25,4,469,0.931,1,correct
14,1,3,26,6,965,1.799,1,correct
14,1,3,27,8,938,12.203,1,correct
14,1,3,28,8,437,-1,1,correct
14,1,4,1,8,241,-1,0,intrusion
14,1,4,2,8,707,8.374,0,intrusion
14,1,4,3,8,699,1.6,1,correct
14,1,4,4,4,183,-1,1,correct
14,1,4,5,8,247,3.163,0,intrusion
14,1,4,6,6,1,2.226,1,correct
14,1,4,7,4,542,1.674,1,correct
14,1,4,8,2,1078,1.774,1,correct
14,1,4,9,8,563,4.643,1,correct
14,1,4,10,6,646,-1,0,intrusion
14,1,4,11,6,1114,3.692,0,intrusion
14,1,4,12,2,744,-1,1,correct
14,1,4,13,2,408,1.277,1,correct
14,1,4,14,6,1019,2.236,1,correct
14,1,4,15,4,827,1.023,1,correct
14,1,4,16,4,927,1.852,1,correct
14,1,4,17,6,638,2.353,1,correct
14,1,4,18,4,400,1.063,1,correct
14,1,4,19,8,669,3.595,0,intrusion
14,1,4,20,6,39,3.959,1,correct
14,1,4,21,8,352,14.589,0,intrusion
14,1,4,22,8,466,1.817,1,correct
14,1,4,23,6,24,1.537,1,correct
14,1,4,24,8,1197,9.763,0,intrusion
14,1,4,25,8,731,1.483,1,correct
14,1,4,26,2,1129,1.42,1,correct
14,1,4,27,4,472,1.543,1,correct
14,1,4,28,6,800,2.329,1,correct
14,1,5,1,8,612,2.564,1,correct
14,1,5,2,4,1124,1.805,1,correct
14,1,5,3,2,903,4.189,1,correct
14,1,5,4,8,319,2.029,1,correct
14,1,5,5,2,159,-1,1,correct
14,1,5,6,8,101,5.646,1,correct
14,1,5,7,6,761,1.201,1,correct
14,1,5,8,8,796,-1,0,intrusion
14,1,5,9,4,256,2.651,1,correct
14,1,5,10,6,91,3.035,1,correct
14,1,5,11,2,191,1.208,1,correct
14,1,5,12,6,1136,5.407,1,correct
14,1,5,13,2,783,0.778,1,correct
14,1,5,14,6,726,6.286,0,intrusion
14,1,5,15,8,372,1.702,1,correct
14,1,5,16,4,621,1.951,1,correct
14,1,5,17,6,1100,-1,1,correct
14,1,5,18,8,562,3.648,1,correct
14,1,5,19,6,513,1.537,1,correct
14,1,5,20,8,75,12.509,1,correct
14,1,5,21,4,800,-1,0,new
14,1,5,22,8,193,4.863,1,correct
14,1,5,23,6,1155,20.705,1,correct
14,1,5,24,4,237,1.598,1,correct
14,1,5,25,4,767,2.036,1,correct
14,1,5,26,6,131,8.189,0,intrusion
14,1,5,27,8,389,7.315,0,intrusion
14,1,5,28,8,693,1.498,1,correct
14,1,6,1,8,278,-1,0,intrusion
14,1,6,2,4,892,2.283,1,correct
14,1,6,3,8,203,2.974,1,correct
14,1,6,4,4,438,2.15,1,correct
14,1,6,5,6,684,3.578,1,correct
14,1,6,6,8,186,3.779,1,correct
14,1,6,7,4,595,-1,1,correct
14,1,6,8,6,610,3.44,0,intrusion
14,1,6,9,2,60,-1,1,correct
14,1,6,10,6,333,-1,1,correct
14,1,6,11,4,822,1.598,1,correct
14,1,6,12,8,562,5.545,1,correct
14,1,6,13,6,249,5.675,1,correct
14,1,6,14,4,820,1.313,1,correct
14,1,6,15,8,465,1.239,1,correct
14,1,6,16,2,447,1.229,1,correct
14,1,6,17,6,181,1.947,1,correct
14,1,6,18,6,79,3.072,0,intrusion
14,1,6,19,8,15,3.844,1,correct
14,1,6,20,2,246,2.097,1,correct
14,1,6,21,4,345,1.999,1,correct
14,1,6,22,8,781,2.508,1,correct
14,1,6,23,8,445,2.025,1,correct
14,1,6,24,8,863,1.439,1,correct
14,1,6,25,6,279,7.828,0,intrusion
14,1,6,26,2,1056,1.001,1,correct
14,1,6,27,6,188,5.684,1,correct
14,1,6,28,8,1060,2.02,1,correct
14,1,7,1,8,925,3.003,1,correct
14,1,7,2,6,877,2.668,1,correct
14,1,7,3,8,1031,1.345,1,correct
14,1,7,4,2,170,-1,1,correct
14,1,7,5,8,581,2.405,0,intrusion
14,1,7,6,4,200,-1,1,correct
14,1,7,7,6,130,3.627,0,intrusion
14,1,7,8,2,748,2.416,1,correct
14,1,7,9,4,442,1.612,1,correct
14,1,7,10,4,1188,1.648,1,correct
14,1,7,11,6,30,1.753,1,correct
14,1,7,12,8,999,5.257,1,correct
14,1,7,13,4,216,1.619,1,correct
14,1,7,14,6,761,-1,1,correct
14,1,7,15,8,421,1.929,1,correct
14,1,7,16,6,474,10.002,1,correct
14,1,7,17,6,1061,1.564,1,correct
14,1,7,18,8,656,3.761,1,correct
14,1,7,19,4,1049,0.87,1,correct
14,1,7,20,8,303,9.64,0,intrusion
14,1,7,21,8,85,-1,0,intrusion
14,1,7,22,8,850,2.915,0,intrusion
14,1,7,23,8,678,8.104,1,correct
14,1,7,24,2,767,1.769,1,correct
14,1,7,25,6,473,2.017,1,correct
14,1,7,26,2,1057,1.534,1,correct
14,1,7,27,4,446,2.026,1,correct
14,1,7,28,6,459,5.498,0,intrusion
14,2,1,1,4,724,1.431,1,correct
14,2,1,2,2,784,1.083,1,correct
14,2,1,3,4,919,-1,1,correct
14,2,1,4,6,535,10.435,0,intrusion
14,2,1,5,8,9,11.725,0,intrusion
14,2,1,6,8,772,7.164,1,correct
14,2,1,7,8,182,10.123,1,correct
14,2,1,8,6,1167,8.706,1,correct
14,2,1,9,6,617,6.663,1,correct
14,2,1,10,8,336,7.075,1,correct
14,2,1,11,2,592,1.24,1,correct
14,2,1,12,6,1117,2.743,1,correct
14,2,1,13,8,625,1.449,1,correct
14,2,1,14,6,855,1.544,1,correct
14,2,1,15,8,302,24.276,0,intrusion
14,2,1,16,6,1006,-1,1,correct
14,2,1,17,8,721,2.716,1,correct
14,2,1,18,4,552,1.198,1,correct
14,2,1,19,4,866,1.753,1,correct
14,2,1,20,8,536,-1,1,correct
14,2,1,21,6,1184,6.301,1,correct
14,2,1,22,2,191,-1,1,correct
14,2,1,23,8,598,2.118,1,correct
14,2,1,24,2,559,1.574,1,correct
14,2,1,25,8,731,3.468,1,correct
14,2,1,26,4,171,1.819,1,correct
14,2,1,27,4,205,1.394,1,correct
14,2,1,28,6,1035,2.361,1,correct
14,2,2,1,6,1081,16.97,0,intrusion
14,2,2,2,4,4,1.392,1,correct
14,2,2,3,8,384,2.503,1,correct
14,2,2,4,4,248,1.417,1,correct
14,2,2,5,6,35,10.69,1,correct
14,2,2,6,6,493,4.035,0,intrusion
14,2,2,7,8,1002,-1,1,correct
14,2,2,8,4,1142,2.265,1,correct
14,2,2,9,4,1101,1.361,1,correct
14,2,2,10,6,376,9.928,1,correct
14,2,2,11,8,190,3.355,1,correct
14,2,2,12,8,504,1.478,1,correct
14,2,2,13,8,324,5.471,1,correct
14,2,2,14,4,1140,-1,1,correct
14,2,2,15,8,950,3.804,1,correct
14,2,2,16,2,337,-1,1,correct
14,2,2,17,8,1080,2.735,1,correct
14,2,2,18,6,1149,-1,1,correct
14,2,2,19,8,360,2.854,1,correct
14,2,2,20,4,1174,3.695,1,correct
14,2,2,21,2,879,1.955,1,correct
14,2,2,22,6,143,2.351,1,correct
14,2,2,23,2,347,1.685,1,correct
14,2,2,24,6,663,1.841,1,correct
14,2,2,25,8,148,7.747,0,intrusion
14,2,2,26,8,576,1.878,1,correct
14,2,2,27,6,64,1.84,1,correct
14,2,2,28,2,1192,1.152,1,correct
14,2,3,1,4,294,1.973,1,correct
14,2,3,2,2,799,1.21,1,correct
14,2,3,3,8,785,12.695,1,correct
14,2,3,4,2,958,-1,1,correct
14,2,3,5,6,218,2.031,1,correct
14,2,3,6,4,977,7.277,1,correct
14,2,3,7,4,570,2.068,1,correct
14,2,3,8,8,414,9.151,0,intrusion
14,2,3,9,8,426,2.193,1,correct
14,2,3,10,6,7,5.922,1,correct
14,2,3,11,8,180,19.018,0,intrusion
14,2,3,12,8,72,5.361,0,intrusion
14,2,3,13,8,156,9.151,1,correct
14,2,3,14,2,167,1.007,1,correct
14,2,3,15,4,865,2.192,1,correct
14,2,3,16,8,421,2.444,1,correct
14,2,3,17,6,128,7.075,0,intrusion
14,2,3,18,6,768,-1,0,new
14,2,3,19,8,487,2.321,1,correct
14,2,3,20,6,995,3.306,1,correct
14,2,3,21,4,657,2.018,1,correct
14,2,3,22,8,439,14.003,0,intrusion
14,2,3,23,6,969,2.062,1,correct
14,2,3,24,8,1071,-1,1,correct
14,2,3,25,6,723,2.37,1,correct
14,2,3,26,6,1025,1.522,1,correct
14,2,3,27,2,342,1.596,1,correct
14,2,3,28,4,170,-1,1,correct
14,2,4,1,4,491,1.611,1,correct
14,2,4,2,8,1005,1.601,1,correct
14,2,4,3,8,1160,10.968,1,correct
14,2,4,4,4,1044,1.71,1,correct
14,2,4,5,4,434,2.218,1,correct
14,2,4,6,4,1036,-1,1,correct
14,2,4,7,2,891,-1,1,correct
14,2,4,8,6,369,3.43,1,correct
14,2,4,9,6,720,1.348,1,correct
14,2,4,10,8,47,3.708,1,correct
14,2,4,11,8,1033,6.696,0,intrusion
14,2,4,12,8,1161,2.092,1,correct
14,2,4,13,6,1084,1.673,1,correct
14,2,4,14,6,832,6.103,0,intrusion
14,2,4,15,8,1022,2.179,1,correct
14,2,4,16,2,578,1.93,1,correct
14,2,4,17,2,506,1.6,1,correct
14,2,4,18,6,268,-1,0,new
14,2,4,19,6,890,6.645,0,intrusion
14,2,4,20,2,331,1.961,1,correct
14,2,4,21,8,661,1.286,1,correct
14,2,4,22,8,728,6.06,1,correct
14,2,4,23,4,265,8.27,0,intrusion
14,2,4,24,6,352,4.726,1,correct
14,2,4,25,6,604,2.749,1,correct
14,2,4,26,8,266,-1,1,correct
14,2,4,27,8,299,2.888,1,correct
14,2,4,28,4,952,10.187,1,correct
14,2,5,1,6,614,2.984,1,correct
14,2,5,2,8,588,2.502,1,correct
14,2,5,3,2,135,1.115,1,correct
14,2,5,4,2,12,0.827,1,correct
14,2,5,5,8,11,1.118,1,correct
14,2,5,6,4,594,4.421,1,correct
14,2,5,7,4,1062,1.471,1,correct
14,2,5,8,8,236,6.365,0,intrusion
14,2,5,9,6,483,9.797,0,intrusion
14,2,5,10,8,406,15.135,0,intrusion
14,2,5,11,4,742,-1,1,correct
14,2,5,12,8,602,2.42,1,correct
14,2,5,13,6,1159,-1,1,correct
14,2,5,14,4,965,2.561,1,correct
14,2,5,15,6,1049,2.348,1,correct
14,2,5,16,6,847,4.564,0,intrusion
14,2,5,17,8,609,1.692,1,correct
14,2,5,18,2,864,-1,1,correct
14,2,5,19,6,26,6.402,0,intrusion
14,2,5,20,8,619,7.663,1,correct
14,2,5,21,8,774,7.595,0,intrusion
14,2,5,22,6,411,1.176,1,correct
14,2,5,23,2,788,1.083,1,correct
14,2,5,24,4,20,6.408,1,correct
14,2,5,25,4,908,1.125,1,correct
14,2,5,26,8,833,-1,1,correct
14,2,5,27,6,172,4.246,1,correct
14,2,5,28,8,1019,2.558,1,correct
14,2,6,1,6,1029,2.403,1,correct
14,2,6,2,8,614,2.236,1,correct
14,2,6,3,8,657,-1,1,correct
14,2,6,4,6,453,3.536,1,correct
14,2,6,5,8,327,4.42,0,intrusion
14,2,6,6,6,192,3.075,0,intrusion
14,2,6,7,4,521,1.936,1,correct
14,2,6,8,8,1012,1.133,1,correct
14,2,6,9,8,967,2.58,1,correct
14,2,6,10,2,344,0.926,1,correct
14,2,6,11,8,118,10.615,0,intrusion
14,2,6,12,8,106,2.591,1,correct
14,2,6,13,4,292,0.951,1,correct
14,2,6,14,4,319,1.195,1,correct
14,2,6,15,6,763,1.397,1,correct
14,2,6,16,2,353,1.195,1,correct
14,2,6,17,8,516,4.826,0,intrusion
14,2,6,18,4,579,1.437,1,correct
14,2,6,19,6,1058,8.135,1,correct
14,2,6,20,4,809,1.527,1,correct
14,2,6,21,8,155,3.185,0,intrusion
14,2,6,22,6,753,-1,1,correct
14,2,6,23,8,1122,5.891,0,intrusion
14,2,6,24,6,295,2.751,1,correct
14,2,6,25,4,1123,-1,0,intrusion
14,2,6,26,2,795,2.683,1,correct
14,2,6,27,2,462,-1,1,correct
14,2,6,28,6,800,1.845,1,correct
14,2,7,1,8,140,3.105,1,correct
14,2,7,2,8,412,9.604,0,intrusion
14,2,7,3,8,34,9.693,1,correct
14,2,7,4,2,11,1.508,1,correct
14,2,7,5,4,40,1.68,1,correct
14,2,7,6,8,284,6.451,1,correct
14,2,7,7,8,942,1.493,1,correct
14,2,7,8,4,644,1.149,1,correct
14,2,7,9,6,723,7.24,0,intrusion
14,2,7,10,6,860,3.181,1,correct
14,2,7,11,4,1004,2.056,1,correct
14,2,7,12,8,575,1.364,0,intrusion
14,2,7,13,4,241,1.402,1,correct
14,2,7,14,6,851,1.653,1,correct
14,2,7,15,2,1107,-1,1,correct
14,2,7,16,6,601,10.367,1,correct
14,2,7,17,6,1145,6.064,0,intrusion
14,2,7,18,6,735,1.33,0,intrusion
14,2,7,19,2,446,1.031,1,correct
14,2,7,20,2,951,0.897,1,correct
14,2,7,21,4,682,-1,1,correct
14,2,7,22,8,1165,8.46,0,intrusion
14,2,7,23,8,834,-1,0,intrusion
14,2,7,24,8,1084,5.483,0,intrusion
14,2,7,25,4,396,1.394,1,correct
14,2,7,26,8,410,5.527,0,intrusion
14,2,7,27,6,318,5.027,0,intrusion
14,2,7,28,6,1059,-1,0,intrusion
14,2,8,1,6,719,2.118,1,correct
14,2,8,2,8,199,2.953,1,correct
14,2,8,3,6,1054,4.629,0,intrusion
14,2,8,4,8,261,3.475,1,correct
14,2,8,5,2,778,-1,1,correct
14,2,8,6,8,513,5.737,1,correct
14,2,8,7,2,419,1.107,1,correct
14,2,8,8,6,151,2.314,1,correct
14,2,8,9,6,718,1.718,1,correct
14,2,8,10,4,46,1.267,1,correct
14,2,8,11,2,1086,1.87,1,correct
14,2,8,12,6,141,1.986,1,correct
14,2,8,13,8,233,16.478,0,intrusion
14,2,8,14,4,640,1.487,1,correct
14,2,8,15,8,475,9.429,1,correct
14,2,8,16,8,820,1.202,1,correct
14,2,8,17,8,356,3.402,0,intrusion
14,2,8,18,4,651,1.729,1,correct
14,2,8,19,8,434,-1,0,intrusion
14,2,8,20,8,659,6.093,0,intrusion
14,2,8,21,6,752,3.413,1,correct
14,2,8,22,4,889,-1,0,intrusion
14,2,8,23,6,770,-1,0,intrusion
14,2,8,24,6,744,2.811,1,correct
14,2,8,25,8,286,5.122,0,intrusion
14,2,8,26,4,161,1.115,1,correct
14,2,8,27,4,252,2.785,1,correct
14,2,8,28,2,1142,0.897,1,correct
14,3,1,1,6,811,1.469,1,correct
14,3,1,2,8,449,30.345,0,intrusion
14,3,1,3,2,562,1.1,1,correct
14,3,1,4,4,617,1.352,1,correct
14,3,1,5,2,676,1.195,1,correct
14,3,1,6,6,1001,3.65,1,correct
14,3,1,7,8,514,14.882,0,intrusion
14,3,1,8,4,1134,-1,1,correct
14,3,1,9,8,1144,3.161,1,correct
14,3,1,10,8,218,1.845,1,correct
14,3,1,11,6,680,1.415,1,correct
14,3,1,12,6,526,7.562,0,intrusion
14,3,1,13,6,777,1.345,1,correct
14,3,1,14,8,603,4.23,1,correct
14,3,1,15,6,632,2.53,1,correct
14,3,1,16,6,1006,-1,0,intrusion
14,3,1,17,8,461,3.35,1,correct
14,3,1,18,4,829,1.779,1,correct
14,3,1,19,4,639,0.974,1,correct
14,3,1,20,4,294,1.352,1,correct
14,3,1,21,2,1107,1.145,1,correct
14,3,1,22,2,1011,-1,1,correct
14,3,1,23,6,923,1.648,1,correct
14,3,1,24,8,107,-1,0,intrusion
14,3,1,25,8,422,8.015,1,correct
14,3,1,26,8,283,3.864,1,correct
14,3,1,27,4,3,1.131,1,correct
14,3,1,28,8,119,12.039,0,intrusion
14,3,2,1,4,358,-1,1,correct
14,3,2,2,8,998,2.316,1,correct
14,3,2,3,4,474,1.61,1,correct
14,3,2,4,8,786,2.918,1,correct
14,3,2,5,4,675,3.176,1,correct
14,3,2,6,8,767,8.098,1,correct
14,3,2,7,8,149,11.049,0,intrusion
14,3,2,8,8,1002,2.314,1,correct
14,3,2,9,4,799,5.537,1,correct
14,3,2,10,4,1014,1.413,1,correct
14,3,2,11,2,179,1.25,1,correct
14,3,2,12,8,865,-1,0,new
14,3,2,13,8,534,10.185,0,intrusion
14,3,2,14,8,1146,1.765,1,correct
14,3,2,15,2,35,-1,1,correct
14,3,2,16,6,487,4.99,1,correct
14,3,2,17,8,355,5.056,1,correct
14,3,2,18,6,129,2.714,1,correct
14,3,2,19,6,1193,9.824,1,correct
14,3,2,20,8,117,7.618,1,correct
14,3,2,21,6,472,1.449,1,correct
14,3,2,22,6,814,8.599,1,correct
14,3,2,23,6,622,-1,1,correct
14,3,2,24,4,773,2.144,1,correct
14,3,2,25,2,1184,0.931,1,correct
14,3,2,26,6,633,2.243,1,correct
14,3,2,27,6,311,1.919,1,correct
14,3,2,28,2,226,1.142,1,correct
14,3,3,1,8,309,1.679,1,correct
14,3,3,2,6,619,1.771,1,correct
14,3,3,3,8,305,-1,1,correct
14,3,3,4,2,39,-1,1,correct
14,3,3,5,6,1041,6.778,0,intrusion
14,3,3,6,4,414,2.17,1,correct
14,3,3,7,2,1154,1.384,1,correct
14,3,3,8,2,931,1.043,1,correct
14,3,3,9,8,235,5.499,1,correct
14,3,3,10,6,907,6.896,0,intrusion
14,3,3,11,4,948,1.241,1,correct
14,3,3,12,6,82,1.684,1,correct
14,3,3,13,2,339,1.155,1,correct
14,3,3,14,4,176,0.905,1,correct
14,3,3,15,4,1083,1.505,1,correct
14,3,3,16,6,1175,1.253,1,correct
14,3,3,17,8,110,26.558,1,correct
14,3,3,18,8,241,8.304,0,intrusion
14,3,3,19,8,68,3.094,1,correct
14,3,3,20,8,275,7.426,1,correct
14,3,3,21,8,1067,17.21,1,correct
14,3,3,22,4,1185,-1,1,correct
14,3,3,23,8,510,4.884,0,intrusion
14,3,3,24,4,643,1.323,1,correct
14,3,3,25,6,641,1.934,1,correct
14,3,3,26,8,800,5.971,1,correct
14,3,3,27,6,53,2.6,1,correct
14,3,3,28,6,925,-1,0,intrusion
14,3,4,1,4,1039,-1,1,correct
14,3,4,2,6,486,4.672,1,correct
14,3,4,3,2,373,1.025,1,correct
14,3,4,4,8,823,1.585,1,correct
14,3,4,5,8,665,9.242,1,correct
14,3,4,6,4,541,1.65,1,correct
14,3,4,7,6,916,7.236,0,intrusion
14,3,4,8,8,349,6.236,1,correct
14,3,4,9,8,542,1.502,1,correct
14,3,4,10,2,183,-1,1,correct
14,3,4,11,6,1058,1.925,1,correct
14,3,4,12,6,40,-1,1,correct
14,3,4,13,2,532,1.743,1,correct
14,3,4,14,4,46,2.215,1,correct
14,3,4,15,6,840,3.551,1,correct
14,3,4,16,6,78,7.684,1,correct
14,3,4,17,4,581,1.8,1,correct
14,3,4,18,8,588,1.191,1,correct
14,3,4,19,6,518,5.586,1,correct
14,3,4,20,6,788,6.803,0,intrusion
14,3,4,21,4,393,1.853,1,correct
14,3,4,22,2,72,0.955,1,correct
14,3,4,23,8,1003,1.122,1,correct
14,3,4,24,8,620,-1,0,intrusion
14,3,4,25,8,965,4.125,1,correct
14,3,4,26,8,929,1.371,1,correct
14,3,4,27,8,659,4.16,0,intrusion
14,3,4,28,4,300,1.291,1,correct
14,3,5,1,2,709,2.031,1,correct
14,3,5,2,8,255,15.237,1,correct
14,3,5,3,6,906,1.707,1,correct
14,3,5,4,8,394,3.876,1,correct
14,3,5,5,6,190,1.335,1,correct
14,3,5,6,4,874,1.159,1,correct
14,3,5,7,4,1068,1.18,1,correct
14,3,5,8,8,120,13.757,0,intrusion
14,3,5,9,6,677,1.764,1,correct
14,3,5,10,6,105,1.055,1,correct
14,3,5,11,6,551,-1,1,correct
14,3,5,12,2,388,1.854,1,correct
14,3,5,13,8,147,2.15,1,correct
14,3,5,14,4,1128,-1,1,correct
14,3,5,15,6,867,2.508,1,correct
14,3,5,16,8,913,6.26,1,correct
14,3,5,17,4,67,1.513,1,correct
14,3,5,18,4,816,1.934,1,correct
14,3,5,19,8,164,6.097,1,correct
14,3,5,20,8,1166,4.949,1,correct
14,3,5,21,4,336,1.576,1,correct
14,3,5,22,8,756,-1,1,correct
14,3,5,23,8,464,2.046,1,correct
14,3,5,24,6,216,2.464,1,correct
14,3,5,25,6,587,1.91,1,correct
14,3,5,26,2,582,-1,1,correct
14,3,5,27,2,889,2.246,1,correct
14,3,5,28,8,891,8.883,1,correct
14,3,6,1,6,13,-1,0,intrusion
14,3,6,2,8,303,2.77,1,correct
14,3,6,3,2,770,-1,1,correct
14,3,6,4,4,596,2.84,1,correct
14,3,6,5,2,340,1.043,1,correct
14,3,6,6,2,845,1.129,1,correct
14,3,6,7,6,666,8.308,1,correct
14,3,6,8,4,158,1.56,1,correct
14,3,6,9,8,108,7.766,0,intrusion
14,3,6,10,4,28,2.313,1,correct
14,3,6,11,4,759,-1,0,intrusion
14,3,6,12,6,536,3.981,1,correct
14,3,6,13,8,13,-1,0,intrusion
14,3,6,14,8,214,11.962,0,intrusion
14,3,6,15,8,566,1.059,1,correct
14,3,6,16,8,846,3.182,1,correct
14,3,6,17,2,569,1.521,1,correct
14,3,6,18,4,365,2.146,1,correct
14,3,6,19,4,391,2.157,1,correct
14,3,6,20,8,1046,4.818,0,intrusion
14,3,6,21,6,757,1.313,1,correct
14,3,6,22,6,313,12.947,0,intrusion
14,3,6,23,6,122,4.441,0,intrusion
14,3,6,24,6,711,6.551,1,correct
14,3,6,25,8,672,11.543,0,intrusion
14,3,6,26,8,707,7.447,1,correct
14,3,6,27,8,478,2.42,1,correct
14,3,6,28,6,574,8.468,0,intrusion
14,3,7,1,8,891,11.485,1,correct
14,3,7,2,8,366,3.956,1,correct
14,3,7,3,8,877,-1,1,correct
14,3,7,4,4,1076,3.719,1,correct
14,3,7,5,2,1179,1.458,1,correct
14,3,7,6,6,935,2.201,1,correct
14,3,7,7,2,422,-1,1,correct
14,3,7,8,4,641,2.089,1,correct
14,3,7,9,6,326,14.294,1,correct
14,3,7,10,8,588,8.446,0,intrusion
14,3,7,11,2,688,1.968,1,correct
14,3,7,12,8,884,2.046,1,correct
14,3,7,13,2,698,1.962,1,correct
14,3,7,14,8,799,14.528,0,intrusion
14,3,7,15,6,872,10.187,0,intrusion
14,3,7,16,6,1157,5.803,1,correct
